Folder: battery-power-management-repo/processed_data

Note: README.md
# Low-Power AI/ML Hardware Battery Life Optimization

This project will focus on how to improve battery life for a low-power SoC system. Researchers will explore the impacts that different power modes (e.g., clock gating, power gating, voltage and frequency scaling, and the corresponding changes to SoC inference runtimes) will have on end-to-end battery life.

File: 12.5mA4msec-0.2mA16msec.csv
Capacity_mAh,Voltage_V
0.0,3.172118
0.631751,2.919023
1.2635,2.858646
1.89525,2.826747
2.527,2.807944
3.15875,2.798724
3.79051,2.793884
4.42226,2.789474
5.05401,2.786301
5.68576,2.783609
6.31751,2.781133
6.94926,2.779164
7.58101,2.777206
8.21276,2.776044
8.84451,2.7744
9.47626,2.773803
10.108,2.772604
10.7398,2.771981
11.3715,2.771491
12.0033,2.77057
12.635,2.769719
13.2668,2.768807
13.8985,2.768191
14.5303,2.768431
15.162,2.768153
15.7938,2.767455
16.4255,2.767405
17.0573,2.76731
17.689,2.766616
18.3208,2.767342
18.9525,2.76702
19.5843,2.766961
20.216,2.766591
20.8478,2.766595
21.4795,2.766709
22.1113,2.765688
22.743,2.763921
23.3748,2.763588
24.0065,2.765585
24.6383,2.7654
25.27,2.764725
25.9018,2.76394
26.5335,2.762775
27.1653,2.761338
27.797,2.759447
28.4288,2.757901
29.0605,2.757433
29.6923,2.754972
30.324,2.754556
30.9558,2.753942
31.5875,2.751582
32.2193,2.747024
32.8511,2.736905
33.4828,2.737694
34.1146,2.733182
34.7463,2.728982
35.3781,2.730803
36.0098,2.723823
36.6416,2.717981
37.2733,2.710891
37.9051,2.713469
38.5368,2.72376
39.1686,2.723127
39.8003,2.694268
40.4321,2.71262
41.0638,2.716864
41.6956,2.720371
42.3273,2.711037
42.9591,2.710976
43.5908,2.72869
44.2226,2.729836
44.8543,2.730181
45.4861,2.729589
46.1178,2.729294
46.7496,2.728715
47.3813,2.728366
48.0131,2.727788
48.6448,2.727897
49.2766,2.726952
49.9083,2.727165
50.5401,2.725264
51.1718,2.720111
51.8036,2.717045
52.4353,2.70915
53.0671,2.707327
53.6988,2.701913
54.3306,2.696636
54.9623,2.697628
55.5941,2.697599
56.2258,2.700597
56.8576,2.707913
57.4893,2.71299
58.1211,2.717196
58.7528,2.720181
59.3846,2.724978
60.0163,2.725555
60.6481,2.725362
61.2798,2.724943
61.9116,2.722682
62.5433,2.722083
63.1751,2.718685
63.8068,2.716527
64.4386,2.716062
65.0703,2.715304
65.7021,2.713398
66.3339,2.710104
66.9656,2.688494
67.5974,2.690486
68.2291,2.689927
68.8609,2.702828
69.4926,2.701715
70.1244,2.69343
70.7561,2.694294
71.3879,2.69311
72.0196,2.691494
72.6514,2.691081
73.2831,2.691272
73.9149,2.688878
74.5466,2.687537
75.1784,2.685826
75.8101,2.684346
76.4419,2.683558
77.0736,2.682563
77.7054,2.681923
78.3371,2.68034
78.9689,2.678625
79.6006,2.675463
80.2324,2.670987
80.8641,2.673973
81.4959,2.667629
82.1276,2.66112
82.7594,2.656059
83.3911,2.661112
84.0229,2.65918
84.6546,2.657994
85.2864,2.663056
85.9181,2.652862
86.5499,2.663766
87.1816,2.665557
87.8134,2.666576
88.4451,2.666448
89.0769,2.665598
89.7086,2.665574
90.3404,2.663726
90.9721,2.661781
91.6039,2.658047
92.2356,2.655789
92.8674,2.65368
93.4991,2.648874
94.1309,2.646
94.7626,2.638033
95.3944,2.629687
96.0261,2.640089
96.6579,2.641474
97.2896,2.642005
97.9214,2.637917
98.5532,2.630715
99.1849,2.629199
99.8167,2.626797
100.448,2.624319
101.08,2.624472
101.712,2.627617
102.344,2.613863
102.975,2.613655
103.607,2.614261
104.239,2.613043
104.871,2.600852
105.502,2.607898
106.134,2.607715
106.766,2.606066
107.398,2.601432
108.029,2.607035
108.661,2.608756
109.293,2.608565
109.925,2.612912
110.556,2.610802
111.188,2.606858
111.82,2.604728
112.452,2.603029
113.083,2.600497
113.715,2.597641
114.347,2.588765
114.979,2.587404
115.61,2.583658
116.242,2.581032
116.874,2.58575
117.506,2.584112
118.137,2.582541
118.769,2.580386
119.401,2.579217
120.033,2.578505
120.664,2.578572
121.296,2.5616
121.928,2.570075
122.56,2.574036
123.191,2.57167
123.823,2.570809
124.455,2.570679
125.087,2.569296
125.718,2.567205
126.35,2.564661
126.982,2.563345
127.614,2.562579
128.245,2.559667
128.877,2.556222
129.509,2.554188
130.141,2.551116
130.772,2.546735
131.404,2.543729
132.036,2.541033
132.668,2.538259
133.299,2.535507
133.931,2.532969
134.563,2.529215
135.195,2.526181
135.826,2.523464
136.458,2.520969
137.09,2.518117
137.722,2.514641
138.353,2.511761
138.985,2.508481
139.617,2.505111
140.249,2.502383
140.88,2.498509
141.512,2.494731
142.144,2.491178
142.776,2.487163
143.407,2.48419
144.039,2.480501
144.671,2.477122
145.303,2.472556
145.934,2.468148
146.566,2.46363
147.198,2.459447
147.83,2.454319
148.461,2.449224
149.093,2.444476
149.725,2.43968
150.357,2.434994
150.988,2.429646
151.62,2.424375
152.252,2.418738
152.884,2.414151
153.515,2.409703
154.147,2.404724
154.779,2.399753
155.411,2.394509
156.042,2.388627
156.674,2.383748
157.306,2.378396
157.938,2.372733
158.569,2.366377
159.201,2.361684
159.833,2.355322
160.465,2.349479
161.096,2.343816
161.728,2.337499
162.36,2.331586
162.992,2.326026
163.623,2.31833
164.255,2.311815
164.887,2.303763
165.519,2.297459
166.151,2.291141
166.782,2.284208
167.414,2.278302
168.046,2.271487
168.678,2.263886
169.309,2.256609
169.941,2.248753
170.573,2.24075
171.205,2.233877
171.836,2.225223
172.468,2.215807
173.1,2.207109
173.732,2.198617
174.363,2.190439
174.995,2.181334
175.627,2.17236
176.259,2.170331
176.89,2.163746
177.522,2.16027
178.154,2.149497
178.786,2.139578
179.417,2.12888
180.049,2.117892
180.681,2.105195
181.313,2.089686
181.944,2.077744
182.576,2.064535
183.208,2.059802
183.84,2.038013
184.471,2.022307
185.103,2.01088
185.735,2.004256
186.367,1.99882
186.998,2.000041
187.63,2.00556
188.262,2.00911
188.894,2.011302
189.06,2.011187

File: 30.0mA1msec-0.2mA29msec.csv
Capacity_mAh,Voltage_V
0.0,3.242666
0.286732,3.048207
0.573464,2.989779
0.860196,2.953057
1.14693,2.92757
1.43366,2.909219
1.72039,2.895069
2.00712,2.885566
2.29386,2.877089
2.58059,2.870739
2.86732,2.866464
3.15405,2.864059
3.44078,2.861366
3.72751,2.861408
4.01425,2.860013
4.30098,2.859339
4.58771,2.858442
4.87444,2.857844
5.16117,2.857467
5.44791,2.856542
5.73464,2.856413
6.02137,2.856141
6.3081,2.855295
6.59483,2.854515
6.88157,2.854805
7.1683,2.854697
7.45503,2.854095
7.74176,2.854585
8.02849,2.854072
8.31523,2.853815
8.60196,2.853799
8.88869,2.853965
9.17542,2.854161
9.46215,2.853851
9.74889,2.85397
10.0356,2.854851
10.3223,2.853605
10.6091,2.853623
10.8958,2.853404
11.1825,2.853168
11.4693,2.853074
11.756,2.853033
12.0427,2.852548
12.3295,2.853028
12.6162,2.852258
12.9029,2.852656
13.1897,2.852329
13.4764,2.851562
13.7631,2.850541
14.0499,2.850916
14.3366,2.852448
14.6233,2.852108
14.9101,2.852152
15.1968,2.851274
15.4835,2.851485
15.7703,2.851646
16.057,2.851579
16.3437,2.850958
16.6305,2.85169
16.9172,2.851711
17.2039,2.85155
17.4906,2.852016
17.7774,2.852271
18.0641,2.852439
18.3508,2.852858
18.6376,2.853209
18.9243,2.85216
19.211,2.853366
19.4978,2.853831
19.7845,2.854024
20.0712,2.853701
20.358,2.852966
20.6447,2.853361
20.9314,2.85302
21.2182,2.854156
21.5049,2.85402
21.7916,2.854048
22.0784,2.85438
22.3651,2.854348
22.6518,2.853637
22.9386,2.854498
23.2253,2.854485
23.512,2.853703
23.7987,2.854517
24.0855,2.854326
24.3722,2.854688
24.6589,2.854254
24.9457,2.854135
25.2324,2.852647
25.5191,2.853806
25.8059,2.853304
26.0926,2.852854
26.3793,2.85308
26.6661,2.854201
26.9528,2.85359
27.2395,2.853884
27.5263,2.8543
27.813,2.85422
28.0997,2.854361
28.3865,2.854903
28.6732,2.854417
28.9599,2.853444
29.2467,2.854089
29.5334,2.853585
29.8201,2.853505
30.1069,2.853898
30.3936,2.854256
30.6803,2.855297
30.967,2.85591
31.2538,2.856187
31.5405,2.855674
31.8272,2.85565
32.114,2.85462
32.4007,2.85432
32.6874,2.854833
32.9742,2.855392
33.2609,2.856539
33.5476,2.856475
33.8344,2.856154
34.1211,2.855914
34.4078,2.855476
34.6946,2.855793
34.9813,2.854923
35.268,2.854847
35.5548,2.855573
35.8415,2.85501
36.1282,2.854068
36.415,2.854015
36.7017,2.853974
36.9884,2.853746
37.2751,2.854553
37.5619,2.854962
37.8486,2.855352
38.1353,2.855257
38.4221,2.855771
38.7088,2.855097
38.9955,2.855258
39.2823,2.854746
39.569,2.854359
39.8557,2.8536
40.1425,2.853533
40.4292,2.852955
40.7159,2.853276
41.0027,2.852379
41.2894,2.851805
41.5761,2.851635
41.8629,2.851603
42.1496,2.851291
42.4363,2.850187
42.7231,2.850507
43.0098,2.85084
43.2965,2.850188
43.5833,2.850468
43.87,2.851306
44.1567,2.851049
44.4434,2.850827
44.7302,2.850684
45.0169,2.84947
45.3036,2.849662
45.5904,2.850327
45.8771,2.850101
46.1638,2.849065
46.4506,2.848847
46.7373,2.848533
47.024,2.847745
47.3108,2.847411
47.5975,2.846606
47.8842,2.846386
48.171,2.846483
48.4577,2.846772
48.7444,2.846968
49.0312,2.846644
49.3179,2.846709
49.6046,2.846623
49.8914,2.846047
50.1781,2.845365
50.4648,2.845494
50.7515,2.845675
51.0383,2.844979
51.325,2.845378
51.6117,2.845059
51.8985,2.844386
52.1852,2.844496
52.4719,2.844776
52.7587,2.843958
53.0454,2.843892
53.3321,2.843128
53.6189,2.843174
53.9056,2.84275
54.1923,2.841779
54.4791,2.841563
54.7658,2.84107
55.0525,2.839354
55.3393,2.840013
55.626,2.839829
55.9127,2.841383
56.1995,2.841368
56.4862,2.841112
56.7729,2.840648
57.0597,2.840349
57.3464,2.839942
57.6331,2.839975
57.9198,2.839125
58.2066,2.839149
58.4933,2.83884
58.78,2.83733
59.0668,2.83875
59.3535,2.838538
59.6402,2.837833
59.927,2.837806
60.2137,2.837864
60.5004,2.838511
60.7872,2.837609
61.0739,2.837977
61.3606,2.836848
61.6474,2.836748
61.9341,2.837346
62.2208,2.83713
62.5076,2.83694
62.7943,2.836383
63.081,2.836183
63.3678,2.835909
63.6545,2.836307
63.9412,2.835428
64.2279,2.835957
64.5147,2.835087
64.8014,2.834719
65.0881,2.83528
65.3749,2.835332
65.6616,2.834122
65.9483,2.83408
66.2351,2.833767
66.5218,2.833774
66.8085,2.832924
67.0953,2.832635
67.382,2.831843
67.6687,2.832078
67.9555,2.83147
68.2422,2.831573
68.5289,2.830503
68.8157,2.83049
69.1024,2.828376
69.3891,2.829655
69.6759,2.828557
69.9626,2.82825
70.2493,2.827872
70.5361,2.827745
70.8228,2.827372
71.1095,2.826711
71.3962,2.826387
71.683,2.826447
71.9697,2.825929
72.2564,2.824921
72.5432,2.82589
72.8299,2.825699
73.1166,2.825038
73.4034,2.824231
73.6901,2.824178
73.9768,2.823847
74.2636,2.822951
74.5503,2.822863
74.837,2.822469
75.1238,2.82205
75.4105,2.820664
75.6972,2.820333
75.984,2.82127
76.2707,2.820146
76.5574,2.819712
76.8442,2.818571
77.1309,2.818634
77.4176,2.817539
77.7044,2.817987
77.9911,2.817192
78.2778,2.81755
78.5645,2.817331
78.8513,2.816812
79.138,2.817783
79.4247,2.816913
79.7115,2.816853
79.9982,2.816387
80.2849,2.81539
80.5717,2.815205
80.8584,2.815607
81.1451,2.815201
81.4319,2.81424
81.7186,2.813587
82.0053,2.812444
82.2921,2.812224
82.5788,2.811903
82.8655,2.811375
83.1523,2.810919
83.439,2.810801
83.7257,2.809655
84.0125,2.810143
84.2992,2.809836
84.5859,2.809409
84.8726,2.808747
85.1594,2.809121
85.4461,2.809232
85.7328,2.809264
85.9284,2.809351

File: 35.0mA1msec-0.2mA14msec.csv
Capacity_mAh,Voltage_V
0.0,3.163232
0.605501,2.920934
1.211,2.85905
1.8165,2.823009
2.422,2.801513
3.0275,2.792362
3.63301,2.784712
4.23851,2.780308
4.84401,2.780582
5.44951,2.77491
6.05501,2.775659
6.66051,2.7735
7.26601,2.772663
7.87151,2.770367
8.47701,2.77053
9.08251,2.769784
9.68801,2.767699
10.2935,2.767191
10.899,2.767556
11.5045,2.766833
12.11,2.766413
12.7155,2.765497
13.321,2.76435
13.9265,2.763005
14.532,2.763117
15.1375,2.76074
15.743,2.762746
16.3485,2.764315
16.954,2.763772
17.5595,2.764431
18.165,2.761616
18.7705,2.764869
19.376,2.763436
19.9815,2.764332
20.587,2.763841
21.1925,2.764758
21.798,2.763444
22.4035,2.762124
23.009,2.760705
23.6145,2.759653
24.22,2.763293
24.8255,2.762727
25.431,2.761357
26.0365,2.760056
26.642,2.761788
27.2475,2.758035
27.853,2.758557
28.4585,2.757061
29.064,2.75782
29.6695,2.756011
30.275,2.756517
30.8805,2.754766
31.486,2.756187
32.0915,2.755413
32.697,2.751915
33.3026,2.751109
33.9081,2.750679
34.5136,2.752004
35.1191,2.748767
35.7246,2.751325
36.3301,2.7477
36.9356,2.747889
37.5411,2.746427
38.1466,2.74239
38.7521,2.742377
39.3576,2.743118
39.9631,2.739598
40.5686,2.741292
41.1741,2.740432
41.7796,2.740702
42.3851,2.739821
42.9906,2.739957
43.5961,2.738876
44.2016,2.73756
44.8071,2.737592
45.4126,2.739334
46.0181,2.738038
46.6236,2.735922
47.2291,2.732965
47.8346,2.733725
48.4401,2.735041
49.0456,2.732348
49.6511,2.733847
50.2566,2.732675
50.8621,2.733121
51.4676,2.732518
52.0731,2.731935
52.6786,2.730358
53.2841,2.730676
53.8896,2.729719
54.4951,2.729599
55.1006,2.728458
55.7061,2.727557
56.3116,2.727296
56.9171,2.726307
57.5226,2.725529
58.1281,2.725499
58.7336,2.724857
59.3391,2.724276
59.9446,2.723377
60.5501,2.723059
61.1556,2.723207
61.7611,2.723191
62.3666,2.723074
62.9721,2.722183
63.5776,2.721139
64.1831,2.722372
64.7886,2.720105
65.3941,2.71964
65.9996,2.717731
66.6051,2.717499
67.2106,2.714636
67.8161,2.71626
68.4216,2.716443
69.0271,2.7181
69.6326,2.715977
70.2381,2.718032
70.8436,2.715569
71.4491,2.715649
72.0546,2.713684
72.6601,2.713184
73.2656,2.709896
73.8711,2.707662
74.4766,2.709029
75.0821,2.706553
75.6876,2.705604
76.2931,2.702582
76.8986,2.701432
77.5041,2.703196
78.1096,2.697382
78.7151,2.697973
79.3206,2.697143
79.9261,2.694821
80.5316,2.693531
81.1371,2.691352
81.7426,2.692215
82.3481,2.687628
82.9536,2.68899
83.5591,2.687454
84.1646,2.685437
84.7701,2.683506
85.3756,2.684145
85.9811,2.679839
86.5866,2.680889
87.1921,2.678812
87.7976,2.675726
88.4031,2.673444
89.0086,2.673266
89.6141,2.670354
90.2196,2.672315
90.8251,2.670456
91.4306,2.664777
92.0361,2.664761
92.6416,2.66315
93.2471,2.660579
93.8526,2.657606
94.4581,2.658437
95.0636,2.655403
95.6691,2.655564
96.2746,2.655054
96.8801,2.651628
97.4856,2.650324
98.0911,2.647308
98.6967,2.648018
99.3022,2.642875
99.9077,2.644869
100.513,2.645935
101.119,2.642343
101.724,2.639086
102.33,2.639983
102.935,2.635746
103.541,2.637066
104.146,2.635265
104.752,2.632126
105.357,2.63286
105.963,2.631358
106.568,2.628395
107.174,2.63081
107.779,2.626806
108.385,2.625535
108.99,2.626309
109.596,2.625411
110.201,2.623173
110.807,2.621483
111.412,2.620053
112.018,2.617615
112.623,2.617088
113.229,2.613904
113.834,2.610829
114.44,2.611878
115.045,2.607354
115.651,2.60365
116.256,2.605943
116.862,2.604996
117.467,2.601914
118.073,2.599945
118.678,2.598204
119.284,2.598213
119.889,2.595359
120.495,2.594764
121.1,2.591539
121.706,2.589161
122.311,2.586466
122.917,2.585701
123.522,2.585057
124.128,2.580671
124.733,2.581786
125.339,2.579512
125.944,2.579334
126.55,2.577945
127.155,2.576595
127.761,2.573775
128.366,2.57417
128.972,2.571422
129.577,2.568488
130.183,2.56626
130.788,2.563952
131.394,2.561888
131.999,2.557609
132.605,2.555804
133.21,2.551667
133.816,2.550585
134.421,2.546237
135.027,2.544086
135.632,2.542295
136.238,2.538839
136.843,2.535168
137.449,2.532575
138.054,2.530124
138.66,2.528323
139.265,2.5241
139.871,2.519726
140.476,2.51553
141.082,2.513456
141.687,2.511337
142.293,2.508778
142.898,2.504558
143.504,2.504729
144.109,2.500454
144.715,2.496035
145.32,2.491946
145.926,2.488924
146.531,2.484928
147.137,2.484081
147.742,2.482119
148.348,2.479344
148.953,2.473574
149.559,2.472648
150.164,2.469553
150.77,2.466529
151.375,2.461876
151.981,2.458652
152.586,2.454637
153.192,2.451137
153.797,2.447532
154.403,2.444937
155.008,2.440986
155.614,2.434428
156.219,2.430928
156.825,2.426745
157.43,2.422785
158.036,2.418904
158.641,2.411546
159.247,2.407266
159.852,2.401874
160.458,2.399092
161.063,2.394257
161.669,2.390726
162.274,2.384112
162.88,2.377857
163.485,2.36703
164.091,2.357968
164.696,2.334754
165.302,2.32685
165.907,2.317049
166.513,2.311348
167.118,2.30043
167.724,2.291349
168.329,2.290363
168.935,2.280775
169.54,2.27763
170.146,2.267099
170.751,2.265119
171.357,2.258129
171.962,2.254751
172.568,2.249894
173.173,2.242444
173.779,2.236422
174.384,2.2318
174.99,2.222746
175.595,2.218217
176.201,2.211964
176.806,2.206946
177.412,2.204696
178.017,2.198449
178.623,2.195783
179.228,2.191522
179.834,2.188205
180.439,2.18336
181.045,2.178917
181.458,2.176783

File: 40.0mA1msec-0.2mA9msec.csv
Capacity_mAh,Voltage_V
0.0,2.925658
0.661834,2.888276
1.32367,2.826591
1.9855,2.794472
2.64734,2.781169
3.30917,2.774576
3.97101,2.769561
4.63284,2.765631
5.29467,2.762434
5.95651,2.759809
6.61834,2.757214
7.28018,2.755936
7.94201,2.754532
8.60385,2.752361
9.26568,2.750228
9.92752,2.749412
10.5893,2.748016
11.2512,2.747641
11.913,2.745965
12.5749,2.745812
13.2367,2.746274
13.8985,2.745821
14.5604,2.745124
15.2222,2.744057
15.884,2.743118
16.5459,2.740879
17.2077,2.740318
17.8695,2.739949
18.5314,2.738785
19.1932,2.738384
19.855,2.737178
20.5169,2.736754
21.1787,2.736627
21.8405,2.736204
22.5024,2.735517
23.1642,2.734604
23.826,2.733154
24.4879,2.731847
25.1497,2.731104
25.8115,2.729322
26.4734,2.72838
27.1352,2.727248
27.797,2.726131
28.4589,2.725716
29.1207,2.724245
29.7825,2.723959
30.4444,2.72329
31.1062,2.722142
31.768,2.720882
32.4299,2.71865
33.0917,2.717159
33.7536,2.71701
34.4154,2.716065
35.0772,2.715592
35.7391,2.714365
36.4009,2.712901
37.0627,2.711165
37.7246,2.710477
38.3864,2.71003
39.0482,2.708689
39.7101,2.708008
40.3719,2.706861
41.0337,2.705592
41.6956,2.704086
42.3574,2.703321
43.0192,2.702244
43.6811,2.700388
44.3429,2.700327
45.0047,2.699316
45.6666,2.697762
46.3284,2.696173
46.9902,2.695373
47.6521,2.694007
48.3139,2.693113
48.9757,2.692115
49.6376,2.689787
50.2994,2.688672
50.9612,2.688027
51.6231,2.686789
52.2849,2.685306
52.9467,2.683291
53.6086,2.682383
54.2704,2.680284
54.9323,2.679773
55.5941,2.678511
56.2559,2.67615
56.9178,2.67422
57.5796,2.673196
58.2414,2.671873
58.9033,2.670296
59.5651,2.668589
60.2269,2.667386
60.8888,2.664767
61.5506,2.66366
62.2124,2.662256
62.8743,2.660685
63.5361,2.659103
64.1979,2.656981
64.8598,2.655385
65.5216,2.654117
66.1834,2.651667
66.8453,2.650116
67.5071,2.648965
68.1689,2.647061
68.8308,2.64488
69.4926,2.64316
70.1544,2.641595
70.8163,2.639122
71.4781,2.636971
72.1399,2.634711
72.8018,2.632527
73.4636,2.630772
74.1254,2.628262
74.7873,2.626798
75.4491,2.624326
76.1109,2.621682
76.7728,2.619781
77.4346,2.617602
78.0965,2.61431
78.7583,2.611449
79.4201,2.608935
80.082,2.606337
80.7438,2.60365
81.4056,2.601452
82.0675,2.598571
82.7293,2.595917
83.3911,2.593183
84.053,2.591381
84.7148,2.587922
85.3766,2.585134
86.0385,2.58235
86.7003,2.579226
87.3621,2.577635
88.024,2.574023
88.6858,2.571472
89.3476,2.568287
90.0095,2.565492
90.6713,2.562311
91.3331,2.558694
91.995,2.555657
92.6568,2.552297
93.3186,2.548196
93.9805,2.544406
94.6423,2.541379
95.3041,2.53759
95.966,2.534208
96.6278,2.530753
97.2896,2.526949
97.9515,2.52294
98.6133,2.519424
99.2752,2.515343
99.937,2.510777
100.599,2.506403
101.261,2.502925
101.922,2.498682
102.584,2.49371
103.246,2.489855
103.908,2.485631
104.57,2.480222
105.232,2.476402
105.893,2.47168
106.555,2.46704
107.217,2.46217
107.879,2.457046
108.541,2.452013
109.203,2.447189
109.865,2.441803
110.526,2.437238
111.188,2.430881
111.85,2.425451
112.512,2.419019
113.174,2.413342
113.836,2.406876
114.497,2.400778
115.159,2.394514
115.821,2.387253
116.483,2.381513
117.145,2.373553
117.807,2.365163
118.468,2.357661
119.13,2.348538
119.792,2.340888
120.454,2.332292
121.116,2.323223
121.778,2.314575
122.439,2.304279
123.101,2.293546
123.763,2.282353
124.425,2.271235
125.087,2.259372
125.749,2.246583
126.41,2.232655
127.072,2.217357
127.734,2.201715
128.396,2.184725
129.058,2.166365
129.72,2.154555
130.381,2.152827
131.043,2.151788
131.705,2.15132
132.367,2.151099
133.029,2.1504
133.691,2.149626
134.352,2.1488
135.014,2.148035
135.676,2.146742
136.338,2.145707
137,2.028492
137.662,1.958934
138.323,1.894116
138.985,1.827263
139.647,1.757899
140.309,1.688299
140.971,1.618784
141.633,1.549537
142.294,1.483644
142.956,1.42012
143.618,1.359847
144.28,1.302028
144.942,1.241883
145.604,1.134117
146.265,1.070356
146.927,1.034869
147.589,1.014738
148.251,1.00011
148.913,0.990174
149.575,0.981137
150.236,0.974485
150.898,0.968251
151.56,0.964262
152.222,0.959703
152.884,0.956791
153.546,0.954683
154.207,0.950468
154.869,0.948032
155.531,0.946606
156.193,0.945262
156.855,0.943128
157.517,0.942566
158.178,0.941464
158.84,0.940318
159.502,0.939008
160.164,0.937792
160.826,0.937503
161.488,0.937609
162.149,0.937024
162.811,0.936412
163.473,0.936232
164.135,0.936493
164.797,0.935761
165.459,0.936211
166.12,0.934661
166.782,0.93475
167.444,0.933436
168.106,0.933885
168.768,0.933834
169.43,0.933892
170.091,0.933392
170.753,0.933046
171.415,0.932364
172.077,0.932643
172.739,0.931716
173.401,0.931134
174.062,0.930104
174.724,0.928995
175.386,0.928128
176.048,0.926932
176.71,0.926124
177.372,0.925017
178.033,0.923605
178.695,0.921804
179.357,0.920481
180.019,0.918439
180.681,0.917589
181.343,0.915831
182.004,0.914376
182.666,0.913409
183.328,0.912673
183.99,0.910725
184.652,0.908502
185.314,0.907095
185.975,0.904657
186.637,0.902749
187.299,0.900896
187.961,0.898639
188.623,0.898574
189.285,0.895742
189.946,0.893788
190.608,0.892551
191.27,0.890375
191.932,0.889617
192.594,0.886723
193.256,0.884561
193.917,0.883129
194.579,0.881338
195.241,0.880287
195.903,0.878596
196.565,0.87721
197.227,0.874877
197.494,0.873442

File: 40.0mA1msec-0.2mA19msec.csv
Capacity_mAh,Voltage_V
0.0,3.132913
0.526209,2.93056
1.05242,2.876791
1.57863,2.845032
2.10484,2.825288
2.63105,2.814316
3.15725,2.808494
3.68346,2.805079
4.20967,2.803285
4.73588,2.80155
5.26209,2.801494
5.7883,2.80012
6.31451,2.799164
6.84072,2.795608
7.36693,2.798557
7.89314,2.798042
8.41935,2.797205
8.94556,2.797012
9.47176,2.795947
9.99797,2.796326
10.5242,2.796427
11.0504,2.794336
11.5766,2.794519
12.1028,2.795859
12.629,2.792841
13.1552,2.793676
13.6814,2.79299
14.2076,2.793221
14.7339,2.794572
15.2601,2.790776
15.7863,2.792296
16.3125,2.793716
16.8387,2.793064
17.3649,2.79055
17.8911,2.793281
18.4173,2.794854
18.9435,2.790505
19.4697,2.791686
19.9959,2.794321
20.5222,2.795598
21.0484,2.795952
21.5746,2.795014
22.1008,2.794874
22.627,2.793673
23.1532,2.791171
23.6794,2.791578
24.2056,2.794198
24.7318,2.787755
25.258,2.794439
25.7842,2.793438
26.3105,2.79317
26.8367,2.792917
27.3629,2.79169
27.8891,2.79097
28.4153,2.790445
28.9415,2.789397
29.4677,2.78839
29.9939,2.790002
30.5201,2.789517
31.0463,2.788712
31.5725,2.78846
32.0988,2.788226
32.625,2.78704
33.1512,2.785789
33.6774,2.785066
34.2036,2.784169
34.7298,2.783973
35.256,2.783874
35.7822,2.781982
36.3084,2.779605
36.8346,2.779427
37.3608,2.779242
37.8871,2.780784
38.4133,2.781543
38.9395,2.781128
39.4657,2.780661
39.9919,2.780461
40.5181,2.779668
41.0443,2.780154
41.5705,2.779168
42.0967,2.779411
42.6229,2.778521
43.1491,2.778463
43.6754,2.778091
44.2016,2.777927
44.7278,2.777081
45.254,2.776814
45.7802,2.776527
46.3064,2.776455
46.8326,2.77518
47.3588,2.774978
47.885,2.773209
48.4112,2.772492
48.9374,2.771123
49.4637,2.770408
49.9899,2.769862
50.5161,2.768598
51.0423,2.768058
51.5685,2.767622
52.0947,2.766404
52.6209,2.765548
53.1471,2.765017
53.6733,2.764366
54.1995,2.764077
54.7258,2.76347
55.252,2.763061
55.7782,2.762983
56.3044,2.762531
56.8306,2.761468
57.3568,2.760852
57.883,2.760978
58.4092,2.760225
58.9354,2.759498
59.4616,2.759185
59.9878,2.758587
60.5141,2.75845
61.0403,2.758562
61.5665,2.757579
62.0927,2.757182
62.6189,2.756916
63.1451,2.756326
63.6713,2.755771
64.1975,2.754366
64.7237,2.753426
65.2499,2.752799
65.7761,2.75239
66.3024,2.751215
66.8286,2.750377
67.3548,2.749673
67.881,2.748779
68.4072,2.747954
68.9334,2.747329
69.4596,2.746508
69.9858,2.745663
70.512,2.744845
71.0382,2.743644
71.5644,2.742497
72.0907,2.74171
72.6169,2.740836
73.1431,2.739995
73.6693,2.739478
74.1955,2.738481
74.7217,2.73719
75.2479,2.736328
75.7741,2.73549
76.3003,2.734893
76.8265,2.734542
77.3527,2.733633
77.879,2.733207
78.4052,2.732567
78.9314,2.732369
79.4576,2.73144
79.9838,2.731168
80.51,2.730153
81.0362,2.729045
81.5624,2.728772
82.0886,2.728291
82.6148,2.727785
83.141,2.726261
83.6673,2.726163
84.1935,2.72508
84.7197,2.724744
85.2459,2.723737
85.7721,2.722958
86.2983,2.722076
86.8245,2.721689
87.3507,2.721417
87.8769,2.721213
88.4031,2.719974
88.9293,2.719769
89.4556,2.71852
89.9818,2.718731
90.508,2.717858
91.0342,2.716505
91.5604,2.715595
92.0866,2.714242
92.6128,2.712366
93.139,2.712738
93.6652,2.71058
94.1914,2.711568
94.7176,2.710994
95.2439,2.707987
95.7701,2.709251
96.2963,2.708886
96.8225,2.707256
97.3487,2.706253
97.8749,2.704756
98.4011,2.704314
98.9273,2.703387
99.4535,2.702358
99.9797,2.70234
100.506,2.70091
101.032,2.700067
101.558,2.69871
102.085,2.697973
102.611,2.696888
103.137,2.694965
103.663,2.691483
104.189,2.691998
104.716,2.691586
105.242,2.691252
105.768,2.691188
106.294,2.69106
106.82,2.690816
107.347,2.68865
107.873,2.68501
108.399,2.687618
108.925,2.688931
109.452,2.685581
109.978,2.685601
110.504,2.68514
111.03,2.683987
111.556,2.682589
112.083,2.682773
112.609,2.676922
113.135,2.676354
113.661,2.675029
114.187,2.674868
114.714,2.673289
115.24,2.672414
115.766,2.669489
116.292,2.668627
116.818,2.665993
117.345,2.664071
117.871,2.663251
118.397,2.661844
118.923,2.660279
119.449,2.659791
119.976,2.657884
120.502,2.653693
121.028,2.653848
121.554,2.654458
122.081,2.652289
122.607,2.652869
123.133,2.651927
123.659,2.650436
124.185,2.646116
124.712,2.644572
125.238,2.648032
125.764,2.649168
126.29,2.648989
126.816,2.647254
127.343,2.646128
127.869,2.645472
128.395,2.643815
128.921,2.639379
129.447,2.640841
129.974,2.639121
130.5,2.638844
131.026,2.637984
131.552,2.636241
132.078,2.6346
132.605,2.634112
133.131,2.633657
133.657,2.632125
134.183,2.630214
134.71,2.629844
135.236,2.627233
135.762,2.624772
136.288,2.623246
136.814,2.619443
137.341,2.616733
137.867,2.617797
138.393,2.617143
138.919,2.615301
139.445,2.612453
139.972,2.612912
140.498,2.610327
141.024,2.607284
141.55,2.606712
142.076,2.60429
142.603,2.602562
143.129,2.602779
143.655,2.603288
144.181,2.600488
144.708,2.599258
145.234,2.594562
145.76,2.593649
146.286,2.594608
146.812,2.591605
147.339,2.591145
147.865,2.590478
148.391,2.584392
148.917,2.586056
149.443,2.578139
149.97,2.578868
150.496,2.578785
151.022,2.573936
151.548,2.573338
152.074,2.571275
152.601,2.565307
153.127,2.563086
153.653,2.562533
154.179,2.559613
154.705,2.561296
155.232,2.562018
155.758,2.55489
156.284,2.552892
156.81,2.552629
157.337,2.549598
157.695,2.546571