Folder: battery-power-management-repo/processed_data (part 2)

File: 40.0mA2msec-0.2mA18msec.csv
Capacity_mAh,Voltage_V
0.0,3.132388
0.661834,2.882257
1.32367,2.814207
1.9855,2.78017
2.64734,2.76539
3.30917,2.756662
3.97101,2.748448
4.63284,2.742105
5.29467,2.735568
5.95651,2.730018
6.61834,2.726444
7.28018,2.722922
7.94201,2.720273
8.60385,2.717986
9.26568,2.716615
9.92752,2.715459
10.5893,2.714824
11.2512,2.714828
11.913,2.714158
12.5749,2.714211
13.2367,2.713426
13.8985,2.713748
14.5604,2.71335
15.2222,2.714118
15.884,2.713818
16.5459,2.712979
17.2077,2.712575
17.8695,2.712753
18.5314,2.712841
19.1932,2.712796
19.855,2.712291
20.5169,2.711102
21.1787,2.711342
21.8405,2.710891
22.5024,2.710898
23.1642,2.711515
23.826,2.711104
24.4879,2.710017
25.1497,2.709067
25.8115,2.707849
26.4734,2.706794
27.1352,2.706051
27.797,2.705501
28.4589,2.704515
29.1207,2.703929
29.7825,2.702538
30.4444,2.702303
31.1062,2.701376
31.768,2.701128
32.4299,2.700529
33.0917,2.700238
33.7536,2.698617
34.4154,2.696688
35.0772,2.694986
35.7391,2.694654
36.4009,2.69422
37.0627,2.694058
37.7246,2.693048
38.3864,2.691746
39.0482,2.691116
39.7101,2.6893
40.3719,2.688195
41.0337,2.686745
41.6956,2.684486
42.3574,2.683788
43.0192,2.682133
43.6811,2.681033
44.3429,2.680552
45.0047,2.678644
45.6666,2.676883
46.3284,2.675136
46.9902,2.673245
47.6521,2.672372
48.3139,2.669687
48.9757,2.668096
49.6376,2.66608
50.2994,2.66458
50.9612,2.663031
51.6231,2.662402
52.2849,2.660747
52.9467,2.659126
53.6086,2.656456
54.2704,2.654493
54.9323,2.653677
55.5941,2.651769
56.2559,2.650012
56.9178,2.647965
57.5796,2.645189
58.2414,2.64363
58.9033,2.641413
59.5651,2.639366
60.2269,2.637526
60.8888,2.637514
61.5506,2.635494
62.2124,2.632852
62.8743,2.63093
63.5361,2.628516
64.1979,2.626327
64.8598,2.625245
65.5216,2.623733
66.1834,2.622672
66.8453,2.619724
67.5071,2.617965
68.1689,2.615407
68.8308,2.612003
69.4926,2.609219
70.1544,2.606343
70.8163,2.603492
71.4781,2.601018
72.1399,2.597939
72.8018,2.595197
73.4636,2.59223
74.1254,2.589385
74.7873,2.586975
75.4491,2.584926
76.1109,2.583449
76.7728,2.581295
77.4346,2.578864
78.0965,2.576977
78.7583,2.574707
79.4201,2.570458
80.082,2.567631
80.7438,2.565293
81.4056,2.563521
82.0675,2.562002
82.7293,2.560476
83.3911,2.557786
84.053,2.555077
84.7148,2.552793
85.3766,2.549727
86.0385,2.547288
86.7003,2.544725
87.3621,2.541689
88.024,2.538879
88.6858,2.536343
89.3476,2.53291
90.0095,2.529604
90.6713,2.52577
91.3331,2.521684
91.995,2.518763
92.6568,2.51503
93.3186,2.512342
93.9805,2.50929
94.6423,2.505948
95.3041,2.501769
95.966,2.497596
96.6278,2.49345
97.2896,2.489724
97.9515,2.485196
98.6133,2.480974
99.2752,2.477276
99.937,2.47221
100.599,2.467737
101.261,2.46253
101.922,2.458656
102.584,2.4536
103.246,2.447759
103.908,2.440398
104.57,2.432671
105.232,2.426273
105.893,2.419744
106.555,2.412951
107.217,2.405677
107.879,2.399206
108.541,2.393341
109.203,2.389469
109.865,2.384246
110.526,2.377992
111.188,2.372563
111.85,2.365469
112.512,2.357813
113.174,2.35041
113.836,2.342656
114.497,2.334858
115.159,2.325867
115.821,2.316844
116.483,2.306809
117.145,2.296672
117.807,2.286042
118.468,2.274814
119.13,2.263524
119.792,2.252146
120.454,2.238293
121.116,2.224616
121.778,2.2095
122.439,2.194351
123.101,2.177628
123.763,2.153326
124.425,2.139064
125.087,2.118798
125.749,2.094631
126.41,2.066482
127.072,2.036778
127.734,2.003626
128.396,1.966585
129.058,1.925113
129.72,1.879753
130.381,1.828215
131.043,1.77243
131.705,1.712824
132.367,1.648838
133.029,1.581623
133.691,1.515592
134.352,1.449784
135.014,1.386392
135.676,1.327262
136.338,1.269454
137,1.215365
137.662,1.14314
138.323,1.066531
138.985,1.04023
139.647,1.024227
140.309,1.014299
140.971,1.007609
141.633,1.001728
142.294,0.997005
142.956,0.995613
143.618,0.994758
144.28,0.994136
144.942,0.994478
145.604,0.994479
146.265,0.995658
146.927,0.99616
147.589,0.996499
148.251,0.998051
148.913,1.000526
149.575,1.003194
150.236,1.004929
150.898,1.007211
151.56,1.010014
152.222,1.012657
152.884,1.015587
153.546,1.018393
154.207,1.020753
154.869,1.023398
155.531,1.026694
156.193,1.028529
156.855,1.031646
157.517,1.033852
158.178,1.037249
158.84,1.038851
159.502,1.041851
160.164,1.043595
160.826,1.046098
161.488,1.048696
162.149,1.050699
162.811,1.053265
163.473,1.055201
164.135,1.057491
164.797,1.059663
165.459,1.062344
166.12,1.064465
166.782,1.067208
167.444,1.070106
168.106,1.072519
168.768,1.07421
169.43,1.075881
170.091,1.077195
170.753,1.079058
171.415,1.080751
172.077,1.081331
172.739,1.082681
173.401,1.083668
174.062,1.08413
174.724,1.084894
175.386,1.086374
176.048,1.086966
176.71,1.087867
177.372,1.088006
178.033,1.088304
178.695,1.088668
179.357,1.087966
180.019,1.088184
180.681,1.088596
181.343,1.088473
182.004,1.088655
182.666,1.088796
183.328,1.088064
183.99,1.087716
184.652,1.085979
185.314,1.085316
185.975,1.084762
186.637,1.084525
187.299,1.083019
187.961,1.082231
188.623,1.08131
189.285,1.080222
189.946,1.078296
190.608,1.077771
191.27,1.076346
191.932,1.074876
192.594,1.073867
193.256,1.072973
193.917,1.0714
194.579,1.069305
195.241,1.067653
195.903,1.06628
196.565,1.064643
197.227,1.063538
197.395,1.06306

File: 40.0mA3msec-0.2mA27msec.csv
Capacity_mAh,Voltage_V
0.0,3.15192
0.661834,2.844211
1.32367,2.777052
1.9855,2.746324
2.64734,2.735743
3.30917,2.72807
3.97101,2.719053
4.63284,2.708832
5.29467,2.697961
5.95651,2.689559
6.61834,2.688553
7.28018,2.68441
7.94201,2.685805
8.60385,2.684786
9.26568,2.687074
9.92752,2.687507
10.5893,2.683707
11.2512,2.682054
11.913,2.686666
12.5749,2.684451
13.2367,2.684071
13.8985,2.683775
14.5604,2.688106
15.2222,2.691542
15.884,2.69242
16.5459,2.693649
17.2077,2.697205
17.8695,2.698925
18.5314,2.700465
19.1932,2.701788
19.855,2.702578
20.5169,2.702649
21.1787,2.70273
21.8405,2.703461
22.5024,2.702223
23.1642,2.701262
23.826,2.699948
24.4879,2.697594
25.1497,2.696841
25.8115,2.6949
26.4734,2.694911
27.1352,2.694561
27.797,2.69363
28.4589,2.692357
29.1207,2.691706
29.7825,2.68952
30.4444,2.687429
31.1062,2.687486
31.768,2.686882
32.4299,2.684121
33.0917,2.68534
33.7536,2.684357
34.4154,2.685479
35.0772,2.684308
35.7391,2.683112
36.4009,2.68067
37.0627,2.676998
37.7246,2.67785
38.3864,2.6763
39.0482,2.674648
39.7101,2.673689
40.3719,2.670955
41.0337,2.670432
41.6956,2.668458
42.3574,2.667934
43.0192,2.666318
43.6811,2.665814
44.3429,2.665036
45.0047,2.66466
45.6666,2.663033
46.3284,2.65958
46.9902,2.658635
47.6521,2.657892
48.3139,2.656372
48.9757,2.655577
49.6376,2.653229
50.2994,2.650368
50.9612,2.648739
51.6231,2.64737
52.2849,2.645605
52.9467,2.644236
53.6086,2.643068
54.2704,2.642061
54.9323,2.639297
55.5941,2.637485
56.2559,2.635141
56.9178,2.63283
57.5796,2.630958
58.2414,2.628595
58.9033,2.625728
59.5651,2.625221
60.2269,2.621986
60.8888,2.619328
61.5506,2.618927
62.2124,2.61691
62.8743,2.615006
63.5361,2.611333
64.1979,2.609535
64.8598,2.607286
65.5216,2.60463
66.1834,2.601245
66.8453,2.598846
67.5071,2.597345
68.1689,2.594655
68.8308,2.591905
69.4926,2.589126
70.1544,2.586756
70.8163,2.584055
71.4781,2.581368
72.1399,2.579367
72.8018,2.576815
73.4636,2.572907
74.1254,2.570343
74.7873,2.567182
75.4491,2.563691
76.1109,2.56044
76.7728,2.55768
77.4346,2.554674
78.0965,2.550983
78.7583,2.548592
79.4201,2.545364
80.082,2.542402
80.7438,2.538391
81.4056,2.535005
82.0675,2.531157
82.7293,2.527891
83.3911,2.524953
84.053,2.520552
84.7148,2.517465
85.3766,2.513751
86.0385,2.509184
86.7003,2.50601
87.3621,2.501805
88.024,2.497044
88.6858,2.493335
89.3476,2.488461
90.0095,2.482878
90.6713,2.477516
91.3331,2.472551
91.995,2.466534
92.6568,2.463374
93.3186,2.459677
93.9805,2.454273
94.6423,2.448564
95.3041,2.441816
95.966,2.436036
96.6278,2.429289
97.2896,2.42246
97.9515,2.41593
98.6133,2.410086
99.2752,2.40178
99.937,2.394563
100.599,2.386925
101.261,2.379167
101.922,2.370705
102.584,2.36157
103.246,2.352261
103.908,2.341217
104.57,2.330692
105.232,2.319158
105.893,2.307801
106.555,2.294491
107.217,2.280913
107.879,2.266261
108.541,2.251677
109.203,2.235796
109.865,2.220422
110.526,2.205352
111.188,2.188813
111.85,2.161235
112.512,2.141748
113.174,2.116522
113.836,2.089608
114.497,2.060731
115.159,2.0279
115.821,1.992116
116.483,1.952785
117.145,1.907736
117.807,1.858839
118.468,1.805641
119.13,1.747059
119.792,1.687129
120.454,1.622143
121.116,1.557047
121.778,1.490069
122.439,1.426317
123.101,1.367833
123.763,1.312386
124.425,1.261079
125.087,1.211931
125.749,1.168359
126.41,1.126173
127.072,1.084901
127.734,1.047421
128.396,1.012522
129.058,0.980225
129.72,0.937724
130.381,0.924405
131.043,0.915791
131.705,0.90963
132.367,0.906417
133.029,0.906273
133.691,0.904937
134.352,0.905625
135.014,0.906346
135.676,0.907123
136.338,0.909152
137,0.910686
137.662,0.912652
138.323,0.913037
138.985,0.91439
139.647,0.918288
140.309,0.922546
140.971,0.923718
141.633,0.927151
142.294,0.932515
142.956,0.937528
143.618,0.942411
144.28,0.948568
144.942,0.953652
145.604,0.957951
146.265,0.962768
146.927,0.965841
147.589,0.969694
148.251,0.973757
148.913,0.978043
149.575,0.982589
150.236,0.988367
150.898,0.993585
151.56,0.998529
152.222,1.002379
152.884,1.007887
153.546,1.012941
154.207,1.018639
154.869,1.024418
155.531,1.030019
156.193,1.035855
156.855,1.042498
157.517,1.046837
158.178,1.052481
158.84,1.056419
159.502,1.061183
160.164,1.065241
160.826,1.070612
161.488,1.075453
162.149,1.080906
162.811,1.084762
163.473,1.088417
164.135,1.093041
164.797,1.09702
165.459,1.100225
166.12,1.104917
166.782,1.110652
167.444,1.115153
168.106,1.118787
168.768,1.123109
169.43,1.128174
170.091,1.132127
170.753,1.135178
171.415,1.139114
172.077,1.14237
172.739,1.144551
173.401,1.147992
174.062,1.151468
174.724,1.153648
175.386,1.156895
176.048,1.159264
176.71,1.161772
177.372,1.164964
178.033,1.167238
178.695,1.168549
179.357,1.171758
180.019,1.17306
180.681,1.174562
181.343,1.176747
182.004,1.179562
182.666,1.180215
183.328,1.182677
183.99,1.183526
184.652,1.184347
185.314,1.185064
185.975,1.185982
186.637,1.185796
187.299,1.186697
187.961,1.187411
188.623,1.187264
189.285,1.186902
189.946,1.186639
190.608,1.186438
191.27,1.186669
191.932,1.185436
192.594,1.184377
193.256,1.184098
193.917,1.184694
194.579,1.182996
195.241,1.181599
195.903,1.180113
196.565,1.179201
197.227,1.178392
197.441,1.177871

File: 40.0mA8msec-0.2mA12msec.csv
Capacity_mAh,Voltage_V
0.0,2.65561
3.60462,2.47071
7.20923,2.45106
10.8138,2.43129
14.4185,2.39351
18.0231,2.33586
21.6277,2.23404
25.2323,2.03669
28.8369,1.58566
32.4415,0.91643
36.0462,0.577623
39.6508,0.315609
43.2554,0.286916
46.86,0.272031
50.4646,0.262859
54.0692,0.257268
57.6739,0.252342
61.2785,0.249633
64.8831,0.24711
68.4877,0.246453
72.0923,0.246105
75.6969,0.247392
79.3016,0.249297
82.9062,0.252843
86.5108,0.254741
90.1154,0.255841
93.72,0.26068
97.3246,0.265892
100.929,0.271254
104.534,0.277484
108.138,0.283999
111.743,0.290875
115.348,0.29872
118.952,0.306539
122.557,0.314975
126.162,0.324934
129.766,0.334682
133.371,0.344143
136.975,0.352905
140.58,0.361278
144.185,0.368427
147.789,0.374469
151.394,0.379608
154.999,0.384786
158.603,0.387628
162.208,0.386588
165.812,0.388647
169.417,0.389553
173.022,0.390088
176.626,0.389969
180.231,0.390825
183.835,0.390801
187.44,0.390661
191.045,0.390338
194.649,0.389832
198.254,0.389071
201.859,0.387788
205.463,0.386148
209.068,0.384851
212.672,0.383004
216.277,0.380797
219.882,0.379228
223.486,0.377456
227.091,0.375343
230.695,0.373341
234.3,0.371068
237.905,0.368904
241.509,0.366916
245.114,0.364684
248.719,0.362939
252.323,0.360922
255.928,0.359448
259.532,0.356432
263.137,0.355143
266.742,0.352869
270.346,0.350693
273.951,0.349216
277.555,0.347032
281.16,0.344838
284.765,0.343345
288.369,0.341679
291.974,0.356969
295.579,0.4254
299.183,0.416826
302.788,0.386942
306.392,0.359167
309.997,0.337002
313.602,0.320976
317.206,0.308438
320.811,0.299357
324.415,0.292241
328.02,0.286328
331.625,0.280845
335.229,0.275992
338.834,0.271804
342.439,0.267281
346.043,0.259013
349.648,0.257129
353.252,0.252394
356.857,0.247857
360.462,0.246339
364.066,0.237017
367.671,0.240116
371.276,0.235561
374.88,0.231466
378.485,0.230527
382.089,0.228712
385.694,0.220834
389.299,0.22491
392.903,0.224566
396.508,0.214131
400.112,0.219551
403.717,0.221847
407.322,0.2181
410.926,0.219742
414.531,0.219353
418.136,0.218198
421.74,0.209833
425.345,0.213976
428.949,0.223152
432.554,0.220348
436.159,0.210976
439.763,0.22078
443.368,0.21891
446.972,0.213491
450.577,0.214878
454.182,0.21974
457.786,0.217386
461.391,0.210643
464.996,0.215175
468.6,0.217084
472.205,0.217024
475.809,0.2085
479.414,0.213274
483.019,0.214947
486.623,0.214058
490.228,0.205693
493.832,0.212268
497.437,0.213098
501.042,0.209911
504.646,0.204005
508.251,0.210315
511.856,0.209804
515.46,0.208119
519.065,0.201545
522.669,0.207991
526.274,0.208395
529.879,0.206162
533.483,0.200225
537.088,0.206078
540.692,0.206101
544.297,0.205395
547.902,0.196957
551.506,0.202712
555.111,0.203247
558.716,0.201181
562.32,0.194741
565.925,0.200442
569.529,0.199962
573.134,0.19738
576.739,0.19182
580.343,0.197497
583.948,0.197407
587.553,0.196564
591.157,0.188754
594.762,0.193526
598.366,0.193511
601.971,0.191693
605.576,0.193574
609.18,0.181289
612.785,0.002912
616.389,0.0027395
619.994,0.00190139
623.599,0.00228179
627.203,0.00260857
630.808,0.00222401
634.413,0.0022939
638.017,0.00215763
641.622,0.00228659
645.226,0.00211689
648.831,0.00233175
652.436,0.00266357
656.04,0.00232978
659.645,0.00206258
663.249,0.00288562
666.854,0.00213992
670.459,0.00229182
674.063,0.00262452
677.668,0.00293034
681.273,0.00262254
684.877,0.00275332
688.482,0.0021613
692.086,0.00303279
695.691,0.00292198
699.296,0.00265719
702.9,0.00241727
706.505,0.00255278
710.109,0.00270104
713.714,0.00199759
717.319,0.00259874
720.923,0.00277939
724.528,0.00256732
728.133,0.00295519
731.737,0.00245205
735.342,0.00249398
738.946,0.00256221
742.551,0.00208415
746.156,0.00248741
749.76,0.00213889
753.365,0.00250936
756.969,0.00233315
760.574,0.00269411
764.179,0.00263607
767.783,0.00232488
771.388,0.00249595
774.993,0.00255508
778.597,0.00296871
782.202,0.0026195
785.806,0.00232693
789.411,0.00304764
793.016,0.00286621
796.62,0.00253081
800.225,0.00260547
803.83,0.00258828
807.434,0.00259307
811.039,0.00202807
814.643,0.00192491
818.248,0.00232761
821.853,0.00236114
825.457,0.00241359
829.062,0.00272452
832.666,0.00190797
836.271,0.00208542
839.876,0.002439
843.48,0.00192098
847.085,0.00246629
850.69,0.00232172
854.294,0.00233817
857.899,0.00221474
861.503,0.0023881
865.108,0.00252163
868.713,0.00264317
872.317,0.00247328
875.922,0.00208887
879.526,0.00213398
883.131,0.00274098
886.736,0.00206909
890.34,0.00240017
893.945,0.00225363
897.55,0.00227699
901.154,0.00279595
904.759,0.00269114
908.363,0.00282081
911.968,0.00238326
915.573,0.00287269
919.177,0.00228114
922.782,0.00205048
926.386,0.00185477
929.991,0.00200965
933.596,0.00192356
937.2,0.00230655
940.805,0.00235506
944.41,0.0021392
948.014,0.00229879
951.619,0.00267303
955.223,0.00246631
958.828,0.00190252
962.433,0.00238722
966.037,0.00210998
969.642,0.00232598
973.246,0.00251336
976.851,0.00213806
980.456,0.00204753
984.06,0.00280968
987.665,0.00251465
991.27,0.00292372
994.874,0.00242785
998.479,0.00236479
1002.08,0.00245232
1005.69,0.00223367
1009.29,0.00202105
1012.9,0.00184615
1016.5,0.00216079
1020.11,0.00226722
1023.71,0.00266167
1027.32,0.00260334
1030.92,0.00238951
1034.52,0.00226136
1038.13,0.00176331
1041.73,0.00205406
1045.34,0.00208356
1048.94,0.00223065
1052.55,0.00257739
1056.15,0.00192916
1059.76,0.00201495
1063.36,0.0023193
1066.97,0.00200531
1070.57,0.00207863
1074.18,0.00234342
1075.63,0.00255548

File: 50.0mA1msec-0.2mA19msec.csv
Capacity_mAh,Voltage_V
0.0,3.185591
0.646348,2.916206
1.2927,2.850954
1.93904,2.814019
2.58539,2.796901
3.23174,2.789155
3.87809,2.785263
4.52444,2.782026
5.17079,2.778845
5.81713,2.775745
6.46348,2.774275
7.10983,2.772202
7.75618,2.769899
8.40253,2.769396
9.04887,2.76862
9.69522,2.767232
10.3416,2.766963
10.9879,2.768105
11.6343,2.767865
12.2806,2.766964
12.927,2.765701
13.5733,2.764629
14.2197,2.766361
14.866,2.765024
15.5124,2.766115
16.1587,2.765047
16.8051,2.764302
17.4514,2.764151
18.0977,2.763062
18.7441,2.762826
19.3904,2.764012
20.0368,2.765172
20.6831,2.765278
21.3295,2.76472
21.9758,2.764774
22.6222,2.766516
23.2685,2.766711
23.9149,2.765824
24.5612,2.764334
25.2076,2.765049
25.8539,2.765933
26.5003,2.767439
27.1466,2.767095
27.793,2.767629
28.4393,2.766299
29.0857,2.763551
29.732,2.76289
30.3784,2.762266
31.0247,2.761894
31.6711,2.761732
32.3174,2.759704
32.9638,2.75974
33.6101,2.759048
34.2565,2.757329
34.9028,2.756289
35.5492,2.755159
36.1955,2.754365
36.8418,2.753245
37.4882,2.752731
38.1345,2.751371
38.7809,2.750576
39.4272,2.74952
40.0736,2.746907
40.7199,2.746529
41.3663,2.746506
42.0126,2.746276
42.659,2.745432
43.3053,2.743517
43.9517,2.743524
44.598,2.742392
45.2444,2.741258
45.8907,2.741033
46.5371,2.740085
47.1834,2.739404
47.8298,2.738951
48.4761,2.738591
49.1225,2.73777
49.7688,2.737877
50.4152,2.737714
51.0615,2.736426
51.7079,2.736662
52.3542,2.736124
53.0006,2.7359
53.6469,2.735415
54.2932,2.734741
54.9396,2.734451
55.5859,2.733527
56.2323,2.732193
56.8786,2.731778
57.525,2.731374
58.1713,2.730411
58.8177,2.730047
59.464,2.729243
60.1104,2.728012
60.7567,2.726981
61.4031,2.725729
62.0494,2.724766
62.6958,2.723457
63.3421,2.722901
63.9885,2.722367
64.6348,2.717421
65.2812,2.716888
65.9275,2.716549
66.5739,2.715248
67.2202,2.716275
67.8666,2.714604
68.5129,2.713915
69.1593,2.712986
69.8056,2.706043
70.452,2.70469
71.0983,2.704002
71.7447,2.703299
72.391,2.702662
73.0373,2.702245
73.6837,2.700542
74.33,2.698602
74.9764,2.699783
75.6227,2.698492
76.2691,2.698678
76.9154,2.699695
77.5618,2.697262
78.2081,2.695717
78.8545,2.694769
79.5008,2.692327
80.1472,2.690793
80.7935,2.689797
81.4399,2.687754
82.0862,2.685705
82.7326,2.684717
83.3789,2.683326
84.0253,2.677737
84.6716,2.676835
85.318,2.67399
85.9643,2.673363
86.6107,2.674344
87.257,2.675682
87.9034,2.673841
88.5497,2.673629
89.1961,2.672158
89.8424,2.670109
90.4887,2.669377
91.1351,2.66899
91.7814,2.667786
92.4278,2.666712
93.0741,2.665032
93.7205,2.663746
94.3668,2.66156
95.0132,2.659674
95.6595,2.658593
96.3059,2.657187
96.9522,2.655286
97.5986,2.652186
98.2449,2.64935
98.8913,2.647767
99.5376,2.646119
100.184,2.643762
100.83,2.642623
101.477,2.641011
102.123,2.638198
102.769,2.637453
103.416,2.635229
104.062,2.633212
104.708,2.632338
105.355,2.630724
106.001,2.628701
106.647,2.626907
107.294,2.624362
107.94,2.621366
108.586,2.619311
109.233,2.617823
109.879,2.615454
110.526,2.613333
111.172,2.611291
111.818,2.609999
112.465,2.608402
113.111,2.607147
113.757,2.604743
114.404,2.603112
115.05,2.602123
115.696,2.599018
116.343,2.59755
116.989,2.595479
117.635,2.593618
118.282,2.591551
118.928,2.590155
119.574,2.587997
120.221,2.5854
120.867,2.582869
121.513,2.581477
122.16,2.579994
122.806,2.577269
123.453,2.574793
124.099,2.572775
124.745,2.570914
125.392,2.568565
126.038,2.56797
126.684,2.565828
127.331,2.563795
127.977,2.561673
128.623,2.553107
129.27,2.551363
129.916,2.549122
130.562,2.54629
131.209,2.544653
131.855,2.538047
132.501,2.536084
133.148,2.53338
133.794,2.535963
134.44,2.53466
135.087,2.532643
135.733,2.53011
136.379,2.527327
137.026,2.525232
137.672,2.522843
138.319,2.520115
138.965,2.517621
139.611,2.515791
140.258,2.512959
140.904,2.509435
141.55,2.506058
142.197,2.502954
142.843,2.49985
143.489,2.495089
144.136,2.493655
144.782,2.48925
145.428,2.485253
146.075,2.482
146.721,2.478424
147.367,2.474822
148.014,2.469666
148.66,2.465021
149.306,2.461283
149.953,2.457451
150.599,2.452879
151.245,2.448183
151.892,2.444273
152.538,2.440855
153.185,2.437797
153.831,2.433933
154.477,2.427823
155.124,2.42159
155.77,2.416149
156.416,2.411536
157.063,2.406537
157.709,2.400417
158.355,2.396456
159.002,2.391586
159.648,2.387245
160.294,2.382511
160.941,2.377508
161.587,2.371661
162.233,2.360106
162.88,2.342556
163.526,2.33329
164.172,2.324553
164.819,2.317474
165.465,2.308666
166.111,2.300167
166.758,2.292619
167.404,2.28441
168.051,2.279675
168.697,2.276778
169.343,2.274049
169.99,2.271694
170.636,2.270056
171.282,2.268071
171.929,2.266065
172.575,2.264255
173.221,2.262492
173.868,2.26083
174.514,2.259172
175.16,2.258588
175.807,2.256883
176.453,2.254797
177.099,2.253434
177.746,2.252114
178.392,2.250582
179.038,2.250208
179.685,2.248134
180.331,2.245614
180.977,2.244459
181.624,2.243495
182.27,2.242156
182.917,2.239894
183.563,2.238144
184.209,2.235719
184.856,2.233738
185.502,2.231931
186.148,2.229543
186.795,2.226918
187.441,2.224963
188.087,2.22202
188.734,2.219828
189.38,2.216972
190.026,2.21475
190.673,2.21212
191.319,2.209112
191.965,2.206514
192.612,2.203155
193.258,2.201064
193.699,2.19846