Folder: battery-power-management-repo/smoothed_normalized_data

Note: README.md
# Low-Power AI/ML Hardware Battery Life Optimization

This project will focus on how to improve battery life for a low-power SoC system. Researchers will explore the impacts that different power modes (e.g., clock gating, power gating, voltage and frequency scaling, and the corresponding changes to SoC inference runtimes) will have on end-to-end battery life.

File: 12.5mA4msec-0.2mA16msec.csv
Capacity_mAh,Voltage_V
0.0,1.0
0.580029,0.966418
1.16006,0.943317
1.74009,0.928792
2.32011,0.920935
2.90014,0.918063
3.48017,0.917214
4.0602,0.916062
4.64023,0.915237
5.22026,0.914498
5.80029,0.91373
6.38032,0.913058
6.96034,0.912494
7.54037,0.911999
8.1204,0.911545
8.70043,0.911136
9.28046,0.910788
9.86049,0.910485
10.4405,0.910209
11.0205,0.909943
11.6006,0.909713
12.1806,0.909514
12.7606,0.909314
13.3407,0.909131
13.9207,0.908964
14.5007,0.908848
15.0807,0.908758
15.6608,0.908678
16.2408,0.90861
16.8208,0.908549
17.4009,0.908503
17.9809,0.908457
18.5609,0.908415
19.1409,0.908374
19.721,0.908368
20.301,0.908387
20.881,0.908284
21.4611,0.908094
22.0411,0.907933
22.6211,0.907825
23.2011,0.907765
23.7812,0.907749
24.3612,0.907746
24.9412,0.907759
25.5213,0.907694
26.1013,0.907395
26.6813,0.90697
27.2613,0.906517
27.8414,0.906017
28.4214,0.905539
29.0014,0.905156
29.5815,0.904857
30.1615,0.904745
30.7415,0.904118
31.3215,0.903225
31.9016,0.902243
32.4816,0.900865
33.0616,0.899271
33.6417,0.898152
34.2217,0.897159
34.8017,0.896229
35.3817,0.89508
35.9618,0.894052
36.5418,0.893249
37.1218,0.893239
37.7019,0.891992
38.2819,0.890845
38.8619,0.890455
39.4419,0.890544
40.022,0.890754
40.602,0.890546
41.182,0.890741
41.7621,0.891496
42.3421,0.892904
42.9221,0.893289
43.5021,0.893994
44.0822,0.894883
44.6622,0.895946
45.2422,0.896579
45.8223,0.89648
46.4023,0.896041
46.9823,0.895915
47.5624,0.895836
48.1424,0.895756
48.7224,0.895764
49.3024,0.895568
49.8825,0.895237
50.4625,0.894509
51.0425,0.89351
51.6226,0.892277
52.2026,0.890724
52.7826,0.889095
53.3626,0.887627
53.9427,0.886387
54.5227,0.885659
55.1027,0.885647
55.6828,0.886125
56.2628,0.887243
56.8428,0.88865
57.4228,0.8902
58.0029,0.891749
58.5829,0.89309
59.1629,0.893947
59.743,0.89457
60.323,0.894863
60.903,0.894795
61.483,0.894429
62.0631,0.893812
62.6431,0.893223
63.2231,0.892686
63.8032,0.89219
64.3832,0.892124
64.9632,0.891539
65.5432,0.89033
66.1233,0.888509
66.7033,0.887023
67.2833,0.886123
67.8634,0.885351
68.4434,0.884954
69.0234,0.884997
69.6034,0.885508
70.1835,0.885451
70.7635,0.884891
71.3435,0.884092
71.9236,0.883817
72.5036,0.883777
73.0836,0.883379
73.6636,0.883004
74.2437,0.88262
74.8237,0.882216
75.4037,0.881773
75.9838,0.88135
76.5638,0.881184
77.1438,0.880746
77.7238,0.880281
78.3039,0.879616
78.8839,0.879122
79.4639,0.878643
80.044,0.878031
80.624,0.876964
81.204,0.875875
81.784,0.874986
82.3641,0.873901
82.9441,0.873183
83.5241,0.872907
84.1042,0.872786
84.6842,0.873046
85.2642,0.873413
85.8442,0.873692
86.4243,0.874118
87.0043,0.874515
87.5843,0.874839
88.1644,0.875208
88.7444,0.875605
89.3244,0.875151
89.9044,0.874654
90.4845,0.874201
91.0645,0.873655
91.6445,0.872954
92.2246,0.872124
92.8046,0.871104
93.3846,0.869384
93.9646,0.867892
94.5447,0.8666
95.1247,0.865882
95.7047,0.865869
96.2848,0.86599
96.8648,0.866161
97.4448,0.866304
98.0248,0.865911
98.6049,0.864475
99.1849,0.863373
99.7649,0.862767
100.345,0.862119
100.925,0.861291
101.505,0.860428
102.085,0.859828
102.665,0.858952
103.245,0.858009
103.825,0.857212
104.405,0.856826
104.985,0.856672
105.565,0.856046
106.145,0.855404
106.725,0.855213
107.305,0.855375
107.885,0.855644
108.465,0.856126
109.045,0.85671
109.625,0.857171
110.205,0.857133
110.785,0.856712
111.366,0.856221
111.946,0.855484
112.526,0.854506
113.106,0.85333
113.686,0.85209
114.266,0.850659
114.846,0.849511
115.426,0.84872
116.006,0.848266
116.586,0.848122
117.166,0.848059
117.746,0.848047
118.326,0.847947
118.906,0.847402
119.486,0.846276
120.066,0.845359
120.646,0.844754
121.226,0.844264
121.806,0.843972
122.386,0.843954
122.966,0.844221
123.546,0.844538
124.126,0.844497
124.706,0.843857
125.286,0.84333
125.866,0.842887
126.446,0.842321
127.026,0.841699
127.606,0.841066
128.186,0.840363
128.766,0.839583
129.346,0.83868
129.926,0.837675
130.506,0.836738
131.086,0.835822
131.667,0.834919
132.247,0.834001
132.827,0.833109
133.407,0.832235
133.987,0.831375
134.567,0.830491
135.147,0.82962
135.727,0.828749
136.307,0.827874
136.887,0.827002
137.467,0.826097
138.047,0.825177
138.627,0.824242
139.207,0.823283
139.787,0.822279
140.367,0.821255
140.947,0.820177
141.527,0.819083
142.107,0.817994
142.687,0.816931
143.267,0.815868
143.847,0.814782
144.427,0.813649
145.007,0.812451
145.587,0.811179
146.167,0.809829
146.747,0.808443
147.327,0.807026
147.907,0.805616
148.487,0.804186
149.067,0.802738
149.647,0.801282
150.227,0.799769
150.807,0.798206
151.387,0.796637
151.968,0.795094
152.548,0.793566
153.128,0.792051
153.708,0.790581
154.288,0.789096
154.868,0.787611
155.448,0.786036
156.028,0.784406
156.608,0.782756
157.188,0.781095
157.768,0.779425
158.348,0.777723
158.928,0.776036
159.508,0.774307
160.088,0.772566
160.668,0.770814
161.248,0.769056
161.828,0.76725
162.408,0.765409
162.988,0.763485
163.568,0.761445
164.148,0.759374
164.728,0.757235
165.308,0.755132
165.888,0.753099
166.468,0.751116
167.048,0.749147
167.628,0.747153
168.208,0.74507
168.788,0.742895
169.368,0.740673
169.948,0.738384
170.528,0.736053
171.108,0.73364
171.688,0.731157
172.269,0.728614
172.849,0.726007
173.429,0.723269
173.621,0.722331

File: 30.0mA1msec-0.2mA29msec.csv
Capacity_mAh,Voltage_V
0.0,1.0
0.286732,0.9689
0.573464,0.947076
0.860196,0.932747
1.14693,0.924131
1.43366,0.91972
1.72039,0.915859
2.00712,0.912703
2.29386,0.910254
2.58059,0.908407
2.86732,0.907069
3.15405,0.906096
3.44078,0.905501
3.72751,0.905144
4.01425,0.904913
4.30098,0.904691
4.58771,0.904461
4.87444,0.904241
5.16117,0.904043
5.44791,0.903851
5.73464,0.903647
6.02137,0.903491
6.3081,0.903389
6.59483,0.903278
6.88157,0.903196
7.1683,0.90314
7.45503,0.903098
7.74176,0.903065
8.02849,0.903025
8.31523,0.903005
8.60196,0.903005
8.88869,0.902982
9.17542,0.90302
9.46215,0.903049
9.74889,0.903042
10.0356,0.903013
10.3223,0.902953
10.6091,0.902881
10.8958,0.902791
11.1825,0.902697
11.4693,0.902662
11.756,0.9026
12.0427,0.902551
12.3295,0.902523
12.6162,0.90246
12.9029,0.902363
13.1897,0.902244
13.4764,0.90214
13.7631,0.902099
14.0499,0.902093
14.3366,0.90213
14.6233,0.902215
14.9101,0.902296
15.1968,0.902315
15.4835,0.902262
15.7703,0.902215
16.057,0.902214
16.3437,0.902224
16.6305,0.902239
16.9172,0.902273
17.2039,0.902329
17.4906,0.902409
17.7774,0.902455
18.0641,0.902464
18.3508,0.902513
18.6376,0.902572
18.9243,0.902655
19.211,0.902752
19.4978,0.902838
19.7845,0.902858
20.0712,0.902833
20.358,0.902754
20.6447,0.902741
20.9314,0.902753
21.2182,0.902814
21.5049,0.902909
21.7916,0.902978
22.0784,0.902996
22.3651,0.902995
22.6518,0.902983
22.9386,0.902998
23.2253,0.903002
23.512,0.903026
23.7987,0.903076
24.0855,0.903089
24.3722,0.903087
24.6589,0.903034
24.9457,0.902968
25.2324,0.902906
25.5191,0.902794
25.8059,0.902729
26.0926,0.902741
26.3793,0.902779
26.6661,0.902842
26.9528,0.902898
27.2395,0.90298
27.5263,0.903076
27.813,0.903146
28.0997,0.903185
28.3865,0.903179
28.6732,0.903122
28.9599,0.903034
29.2467,0.902933
29.5334,0.90286
29.8201,0.902884
30.1069,0.902999
30.3936,0.903173
30.6803,0.903348
30.967,0.903505
31.2538,0.903578
31.5405,0.903533
31.8272,0.903403
32.114,0.903263
32.4007,0.903204
32.6874,0.903253
32.9742,0.903355
33.2609,0.903521
33.5476,0.903656
33.8344,0.903715
34.1211,0.903677
34.4078,0.903579
34.6946,0.903503
34.9813,0.90345
35.268,0.903382
35.5548,0.903325
35.8415,0.903249
36.1282,0.903154
36.415,0.903045
36.7017,0.90298
36.9884,0.902995
37.2751,0.90306
37.5619,0.903188
37.8486,0.903319
38.1353,0.903411
38.4221,0.903452
38.7088,0.903416
38.9955,0.903336
39.2823,0.903195
39.569,0.903045
39.8557,0.902935
40.1425,0.902822
40.4292,0.902716
40.7159,0.902632
41.0027,0.902521
41.2894,0.902398
41.5761,0.902267
41.8629,0.902137
42.1496,0.902069
42.4363,0.901958
42.7231,0.901863
43.0098,0.901858
43.2965,0.901903
43.5833,0.901968
43.87,0.902033
44.1567,0.90204
44.4434,0.901985
44.7302,0.901888
45.0169,0.901783
45.3036,0.901714
45.5904,0.901648
45.8771,0.901588
46.1638,0.901521
46.4506,0.901404
46.7373,0.901233
47.024,0.901047
47.3108,0.90087
47.5975,0.900727
47.8842,0.900643
48.171,0.90064
48.4577,0.900663
48.7444,0.900725
49.0312,0.900769
49.3179,0.900697
49.6046,0.900557
49.8914,0.900454
50.1781,0.900362
50.4648,0.900299
50.7515,0.900256
51.0383,0.900252
51.325,0.900237
51.6117,0.900171
51.8985,0.900089
52.1852,0.900038
52.4719,0.899957
52.7587,0.899869
53.0454,0.899764
53.3321,0.899638
53.6189,0.899487
53.9056,0.899358
54.1923,0.899199
54.4791,0.898995
54.7658,0.898796
55.0525,0.898694
55.3393,0.8987
55.626,0.898763
55.9127,0.89884
56.1995,0.898917
56.4862,0.898929
56.7729,0.898859
57.0597,0.89873
57.3464,0.898641
57.6331,0.898566
57.9198,0.898491
58.2066,0.898401
58.4933,0.898295
58.78,0.898171
59.0668,0.898052
59.3535,0.897928
59.6402,0.897875
59.927,0.897849
60.2137,0.89787
60.5004,0.897865
60.7872,0.897826
61.0739,0.897758
61.3606,0.897705
61.6474,0.89763
61.9341,0.897602
62.2208,0.897582
62.5076,0.897563
62.7943,0.897509
63.081,0.897433
63.3678,0.897349
63.6545,0.897285
63.9412,0.897179
64.2279,0.897075
64.5147,0.897032
64.8014,0.89697
65.0881,0.89691
65.3749,0.896831
65.6616,0.896758
65.9483,0.896664
66.2351,0.896521
66.5218,0.896371
66.8085,0.896264
67.0953,0.89616
67.382,0.896047
67.6687,0.89592
67.9555,0.895831
68.2422,0.895673
68.5289,0.895539
68.8157,0.895382
69.1024,0.895219
69.3891,0.895084
69.6759,0.894956
69.9626,0.89483
70.2493,0.894729
70.5361,0.894596
70.8228,0.894538
71.1095,0.894435
71.3962,0.894312
71.683,0.894225
71.9697,0.894163
72.2564,0.894108
72.5432,0.89403
72.8299,0.89395
73.1166,0.893863
73.4034,0.893703
73.6901,0.893528
73.9768,0.893364
74.2636,0.893232
74.5503,0.893079
74.837,0.892915
75.1238,0.892765
75.4105,0.892619
75.6972,0.892499
75.984,0.892392
76.2707,0.892256
76.5574,0.892104
76.8442,0.891943
77.1309,0.891778
77.4176,0.891632
77.7044,0.891513
77.9911,0.891433
78.2778,0.891391
78.5645,0.891369
78.8513,0.891351
79.138,0.891349
79.4247,0.891284
79.7115,0.89117
79.9982,0.891043
80.2849,0.8909
80.5717,0.890766
80.8584,0.890658
81.1451,0.890525
81.4319,0.890371
81.7186,0.890172
82.0053,0.889949
82.2921,0.889773
82.5788,0.889644
82.8655,0.889496
83.1523,0.889374
83.439,0.889254
83.7257,0.889157
84.0125,0.889022
84.2992,0.888904
84.5859,0.888844
84.8726,0.88881
85.1594,0.888799
85.4461,0.888823
85.7328,0.888888
85.9284,0.888959

File: 30.0mA2msec-0.2mA8msec.csv
Capacity_mAh,Voltage_V
0.0,1.0
0.259233,0.991896
0.518465,0.984299
0.777698,0.977194
1.03693,0.970565
1.29616,0.964395
1.5554,0.958671
1.81463,0.953374
2.07386,0.94849
2.33309,0.944003
2.59233,0.939897
2.85156,0.936155
3.11079,0.932763
3.37002,0.929704
3.62926,0.926963
3.88849,0.924523
4.14772,0.922369
4.40696,0.920485
4.66619,0.918855
4.92542,0.917464
5.18465,0.916294
5.44389,0.915332
5.70312,0.91456
5.96235,0.913963
6.22158,0.913525
6.48082,0.91323
6.74005,0.913538
6.99928,0.913868
7.25851,0.913914
7.51775,0.913811
7.77698,0.913602
8.03621,0.913333
8.29545,0.913041
8.55468,0.912757
8.81391,0.912494
9.07314,0.912258
9.33238,0.912049
9.59161,0.911873
9.85084,0.911726
10.1101,0.911603
10.3693,0.911502
10.6285,0.911416
10.8878,0.911334
11.147,0.911253
11.4062,0.911176
11.6655,0.911106
11.9247,0.911033
12.1839,0.910959
12.4432,0.910899
12.7024,0.910852
12.9616,0.91081
13.2209,0.910774
13.4801,0.91074
13.7393,0.910713
13.9986,0.910683
14.2578,0.910645
14.517,0.910611
14.7763,0.910567
15.0355,0.910514
15.2947,0.910468
15.554,0.910404
15.8132,0.910343
16.0724,0.910265
16.3317,0.910191
16.5909,0.910095
16.8501,0.909986
17.1094,0.909882
17.3686,0.909756
17.6278,0.909628
17.8871,0.909493
18.1463,0.909347
18.4055,0.909182
18.6648,0.909017
18.924,0.908838
19.1832,0.908643
19.4425,0.908437
19.7017,0.908232
19.9609,0.908017
20.2201,0.90778
20.4794,0.907539
20.7386,0.907305
20.9978,0.907067
21.2571,0.906817
21.5163,0.906565
21.7755,0.90631
22.0348,0.906062
22.294,0.90582
22.5532,0.905588
22.8125,0.905361
23.0717,0.905132
23.3309,0.904903
23.5902,0.904674
23.8494,0.90444
24.1086,0.904211
24.3679,0.903986
24.6271,0.903765
24.8863,0.903544
25.1456,0.903333
25.4048,0.903137
25.664,0.90294
25.9233,0.902734
26.1825,0.902524
26.4417,0.902312
26.701,0.902092
26.9602,0.901877
27.2194,0.901657
27.4787,0.901445
27.7379,0.901234
27.9971,0.901013
28.2564,0.90078
28.5156,0.900536
28.7748,0.900289
29.0341,0.900038
29.2933,0.899783
29.5525,0.899526
29.8118,0.899271
30.071,0.899021
30.3302,0.89877
30.5895,0.898514
30.8487,0.898258
31.1079,0.897988
31.3672,0.897709
31.6264,0.897422
31.8856,0.897131
32.1449,0.896836
32.4041,0.896537
32.6633,0.896232
32.9225,0.895927
33.1818,0.895626
33.441,0.895328
33.7002,0.89503
33.9595,0.894728
34.2187,0.894421
34.4779,0.894116
34.7372,0.893804
34.9964,0.89349
35.2556,0.893173
35.5149,0.892859
35.7741,0.892547
36.0333,0.892237
36.2926,0.891927
36.5518,0.891626
36.811,0.891324
37.0703,0.891017
37.3295,0.890701
37.5887,0.890376
37.848,0.890044
38.1072,0.889704
38.3664,0.889358
38.6257,0.889008
38.8849,0.888648
39.1441,0.888289
39.4034,0.887925
39.6626,0.887556
39.9218,0.887181
40.1811,0.886798
40.4403,0.886411
40.6995,0.886017
40.9588,0.88562
41.218,0.885216
41.4772,0.884806
41.7365,0.884389
41.9957,0.883965
42.2549,0.883541
42.5142,0.883119
42.7734,0.882692
43.0326,0.882263
43.2919,0.881833
43.5511,0.881404
43.8103,0.88098
44.0696,0.880556
44.3288,0.880133
44.588,0.879707
44.8473,0.879274
45.1065,0.878836
45.3657,0.878394
45.6249,0.877949
45.8842,0.877505
46.1434,0.877064
46.4026,0.876623
46.6619,0.876185
46.9211,0.875753
47.1803,0.875319
47.4396,0.874878
47.6988,0.874432
47.958,0.87398
48.2173,0.873525
48.4765,0.873067
48.7357,0.872607
48.995,0.872141
49.2542,0.871666
49.5134,0.871192
49.7727,0.870721
50.0319,0.870244
50.2911,0.869754
50.5504,0.869252
50.8096,0.868738
51.0688,0.868215
51.3281,0.867677
51.5873,0.867128
51.8465,0.866565
52.1058,0.865998
52.365,0.865427
52.6242,0.864852
52.8835,0.864275
53.1427,0.863695
53.4019,0.863105
53.6612,0.862506
53.9204,0.861896
54.1796,0.861272
54.4389,0.860638
54.6981,0.860002
54.9573,0.859362
55.2166,0.858724
55.4758,0.858086
55.735,0.857447
55.9943,0.856809
56.2535,0.856173
56.5127,0.855538
56.772,0.854897
57.0312,0.854251
57.2904,0.853593
57.5497,0.852924
57.8089,0.852242
58.0681,0.851557
58.3274,0.850869
58.5866,0.850175
58.8458,0.849477
59.105,0.848775
59.3643,0.848074
59.6235,0.847375
59.8827,0.846673
60.142,0.845956
60.4012,0.845223
60.6604,0.844481
60.9197,0.843732
61.1789,0.842979
61.4381,0.842219
61.6974,0.841456
61.9566,0.840689
62.2158,0.839917
62.4751,0.839138
62.7343,0.838343
62.9935,0.837521
63.2528,0.836671
63.512,0.835806
63.7712,0.83493
64.0305,0.834052
64.2897,0.833165
64.5489,0.83227
64.8082,0.831365
65.0674,0.83045
65.3266,0.829519
65.5859,0.828574
65.8451,0.827611
66.1043,0.826627
66.3636,0.825624
66.6228,0.82461
66.882,0.823588
67.1413,0.822558
67.4005,0.821512
67.6597,0.820449
67.919,0.819368
68.1782,0.818267
68.4374,0.817142
68.6967,0.815988
68.9559,0.814811
69.2151,0.813607
69.4744,0.812382
69.7336,0.811129
69.9928,0.809845
70.2521,0.80852
70.5113,0.807142
70.7705,0.805695
71.0298,0.804172
71.289,0.802574
71.5482,0.800911
71.8074,0.799191
72.0667,0.797422
72.3259,0.795611
72.5851,0.793765
72.8444,0.791887
73.1036,0.789987
73.3628,0.788074
73.6221,0.786162
73.8813,0.784263
74.1405,0.782547
74.3998,0.781164
74.659,0.779873
74.9182,0.77863
75.1775,0.777406
75.4367,0.776188
75.6959,0.77496
75.9552,0.773723
76.2144,0.772464
76.4736,0.771152
76.7329,0.769772
76.9921,0.768316
77.2513,0.766773
77.5106,0.765121
77.5414,0.764917

File: 30.0mA3msec-0.2mA7msec.csv
Capacity_mAh,Voltage_V
0.0,1.0
0.161219,0.995758
0.322438,0.991639
0.483657,0.987641
0.644876,0.983764
0.806095,0.980005
0.967314,0.976362
1.12853,0.972835
1.28975,0.96942
1.45097,0.966117
1.61219,0.962924
1.77341,0.959839
1.93463,0.95686
2.09585,0.953986
2.25707,0.951215
2.41829,0.948545
2.5795,0.945975
2.74072,0.943503
2.90194,0.941127
3.06316,0.938845
3.22438,0.936657
3.3856,0.934559
3.54682,0.932551
3.70804,0.930631
3.86926,0.928796
4.03048,0.927046
4.19169,0.925379
4.35291,0.923793
4.51413,0.922285
4.67535,0.920856
4.83657,0.919502
4.99779,0.918223
5.15901,0.917015
5.32023,0.915879
5.48145,0.914812
5.64267,0.913812
5.80389,0.912878
5.9651,0.912008
6.12632,0.9112
6.28754,0.910452
6.44876,0.909764
6.60998,0.909133
6.7712,0.908557
6.93242,0.908035
7.09364,0.907565
7.25486,0.907146
7.41608,0.906775
7.57729,0.906452
7.73851,0.906174
7.89973,0.905939
8.06095,0.905746
8.22217,0.905594
8.38339,0.90548
8.54461,0.905403
8.70583,0.905361
8.86705,0.905352
9.02827,0.905376
9.18948,0.905429
9.3507,0.905511
9.51192,0.905619
9.67314,0.905752
9.83436,0.905909
9.99558,0.906575
10.1568,0.907009
10.318,0.907337
10.4792,0.907587
10.6405,0.907769
10.8017,0.907896
10.9629,0.907983
11.1241,0.908041
11.2853,0.908072
11.4466,0.908093
11.6078,0.908119
11.769,0.908137
11.9302,0.908162
12.0914,0.908182
12.2526,0.908207
12.4139,0.908237
12.5751,0.908271
12.7363,0.908306
12.8975,0.90834
13.0587,0.908373
13.22,0.908404
13.3812,0.908426
13.5424,0.908437
13.7036,0.908441
13.8648,0.908442
14.0261,0.908436
14.1873,0.908423
14.3485,0.908401
14.5097,0.908366
14.6709,0.908325
14.8322,0.908285
14.9934,0.908242
15.1546,0.908192
15.3158,0.908127
15.477,0.908051
15.6382,0.907959
15.7995,0.907847
15.9607,0.907692
16.1219,0.907516
16.2831,0.907347
16.4443,0.907151
16.6056,0.906952
16.7668,0.906731
16.928,0.906503
17.0892,0.906261
17.2504,0.906014
17.4117,0.90578
17.5729,0.905551
17.7341,0.905322
17.8953,0.905085
18.0565,0.90484
18.2178,0.904597
18.379,0.904357
18.5402,0.904113
18.7014,0.903864
18.8626,0.903604
19.0238,0.903347
19.1851,0.903091
19.3463,0.902838
19.5075,0.902591
19.6687,0.902345
19.8299,0.902099
19.9912,0.901849
20.1524,0.901598
20.3136,0.901344
20.4748,0.901088
20.636,0.900831
20.7973,0.90057
20.9585,0.900306
21.1197,0.900042
21.2809,0.899777
21.4421,0.899508
21.6034,0.899239
21.7646,0.898966
21.9258,0.898694
22.087,0.898424
22.2482,0.898151
22.4094,0.897874
22.5707,0.897594
22.7319,0.89731
22.8931,0.897026
23.0543,0.896737
23.2155,0.896447
23.3768,0.896154
23.538,0.895858
23.6992,0.895559
23.8604,0.895257
24.0216,0.894951
24.1829,0.894641
24.3441,0.894326
24.5053,0.894009
24.6665,0.893689
24.8277,0.893366
24.9889,0.893039
25.1502,0.89271
25.3114,0.892382
25.4726,0.892053
25.6338,0.891721
25.795,0.891381
25.9563,0.891037
26.1175,0.890686
26.2787,0.890331
26.4399,0.889971
26.6011,0.889606
26.7624,0.88924
26.9236,0.888868
27.0848,0.888493
27.246,0.888113
27.4072,0.887733
27.5685,0.887349
27.7297,0.88696
27.8909,0.886568
28.0521,0.886172
28.2133,0.885774
28.3745,0.885371
28.5358,0.884967
28.697,0.884561
28.8582,0.884148
29.0194,0.883731
29.1806,0.883309
29.3419,0.882883
29.5031,0.882452
29.6643,0.882021
29.8255,0.881585
29.9867,0.881144
30.148,0.880696
30.3092,0.880243
30.4704,0.879785
30.6316,0.879322
30.7928,0.878855
30.9541,0.878385
31.1153,0.87791
31.2765,0.87743
31.4377,0.876946
31.5989,0.876459
31.7601,0.875969
31.9214,0.875475
32.0826,0.874977
32.2438,0.874474
32.405,0.873967
32.5662,0.873456
32.7275,0.872942
32.8887,0.872421
33.0499,0.871895
33.2111,0.871363
33.3723,0.870826
33.5336,0.870283
33.6948,0.869734
33.856,0.869181
34.0172,0.868623
34.1784,0.868062
34.3397,0.867496
34.5009,0.866927
34.6621,0.866351
34.8233,0.86577
34.9845,0.86518
35.1457,0.864585
35.307,0.863986
35.4682,0.86338
35.6294,0.862772
35.7906,0.862159
35.9518,0.861537
36.1131,0.860909
36.2743,0.860273
36.4355,0.85963
36.5967,0.85898
36.7579,0.858323
36.9192,0.857658
37.0804,0.856985
37.2416,0.856307
37.4028,0.855621
37.564,0.854927
37.7253,0.854227
37.8865,0.853519
38.0477,0.852801
38.2089,0.852075
38.3701,0.851333
38.5313,0.850575
38.6926,0.849798
38.8538,0.849002
39.015,0.848183
39.1762,0.847343
39.3374,0.846479
39.4987,0.845591
39.6599,0.844682
39.8211,0.843754
39.9823,0.84281
40.1435,0.841851
40.3048,0.840889
40.466,0.840007
40.6272,0.839151
40.7884,0.838303
40.9496,0.837462
41.1109,0.836623
41.2721,0.835785
41.4333,0.834945
41.5945,0.8341
41.7557,0.833249
41.9169,0.832391
42.0782,0.831526
42.2394,0.830653
42.4006,0.829769
42.5618,0.828874
42.723,0.827968
42.8843,0.827051
43.0455,0.826122
43.2067,0.825179
43.3679,0.824223
43.5291,0.823254
43.6904,0.822272
43.8516,0.821279
44.0128,0.820276
44.174,0.819259
44.3352,0.81823
44.4965,0.817186
44.6577,0.816125
44.8189,0.815039
44.9801,0.813928
45.1413,0.81281
45.3025,0.811683
45.4638,0.810535
45.625,0.80936
45.7862,0.808161
45.9474,0.806934
46.1086,0.805674
46.2699,0.80438
46.4311,0.803048
46.5923,0.801677
46.7535,0.800265
46.9147,0.798808
47.076,0.797304
47.2372,0.795751
47.3984,0.794145
47.5596,0.792481
47.7208,0.790754
47.8821,0.788962
48.0052,0.787546

File: 30.0mA5msec-0.2mA5msec.csv
Capacity_mAh,Voltage_V
0.0,1.0
0.0734026,0.998453
0.146805,0.996923
0.220208,0.995408
0.29361,0.993909
0.367013,0.992425
0.440416,0.990957
0.513818,0.989505
0.587221,0.988068
0.660623,0.986646
0.734026,0.985239
0.807428,0.983848
0.880831,0.982471
0.954234,0.98111
1.02764,0.979763
1.10104,0.978431
1.17444,0.977113
1.24784,0.97581
1.32125,0.974522
1.39465,0.973247
1.46805,0.971987
1.54145,0.970742
1.61486,0.96951
1.68826,0.968292
1.76166,0.967088
1.83506,0.965897
1.90847,0.964721
1.98187,0.963558
2.05527,0.962408
2.12868,0.961272
2.20208,0.960149
2.27548,0.959039
2.34888,0.957942
2.42229,0.956859
2.49569,0.955788
2.56909,0.95473
2.64249,0.953684
2.7159,0.952652
2.7893,0.951632
2.8627,0.950624
2.9361,0.949628
3.00951,0.948645
3.08291,0.947674
3.15631,0.946715
3.22971,0.945768
3.30312,0.944832
3.37652,0.943909
3.44992,0.942997
3.52332,0.942096
3.59673,0.941207
3.67013,0.94033
3.74353,0.939464
3.81693,0.938609
3.89034,0.937764
3.96374,0.936931
4.03714,0.936109
4.11055,0.935298
4.18395,0.934497
4.25735,0.933707
4.33075,0.932928
4.40416,0.932158
4.47756,0.9314
4.55096,0.930651
4.62436,0.929912
4.69777,0.929184
4.77117,0.928465
4.84457,0.927757
4.91797,0.927058
4.99138,0.926368
5.06478,0.925689
5.13818,0.925018
5.21158,0.924357
5.28499,0.923706
5.35839,0.923063
5.43179,0.92243
5.50519,0.921805
5.5786,0.92119
5.652,0.920583
5.7254,0.919985
5.7988,0.919395
5.87221,0.918814
5.94561,0.918241
6.01901,0.917677
6.09241,0.917121
6.16582,0.916573
6.23922,0.916033
6.31262,0.915501
6.38603,0.914977
6.45943,0.91446
6.53283,0.913951
6.60623,0.91345
6.67964,0.912956
6.75304,0.91247
6.82644,0.911991
6.89984,0.911518
6.97325,0.911053
7.04665,0.910595
7.12005,0.910144
7.19345,0.9097
7.26686,0.909262
7.34026,0.908831
7.41366,0.908406
7.48706,0.907988
7.56047,0.907576
7.63387,0.907171
7.70727,0.906771
7.78067,0.906377
7.85408,0.90599
7.92748,0.905608
8.00088,0.905232
8.07428,0.904861
8.14769,0.904496
8.22109,0.904137
8.29449,0.903783
8.3679,0.903434
8.4413,0.90309
8.5147,0.902751
8.5881,0.902418
8.66151,0.902089
8.73491,0.901765
8.80831,0.901445
8.88171,0.901131
8.95512,0.90082
9.02852,0.900514
9.10192,0.900213
9.17532,0.899915
9.24873,0.899622
9.32213,0.899333
9.39553,0.899047
9.46893,0.898766
9.54234,0.898488
9.61574,0.898214
9.68914,0.897943
9.76254,0.897676
9.83595,0.897412
9.90935,0.897151
9.98275,0.896894
10.0562,0.896639
10.1296,0.896388
10.203,0.896139
10.2764,0.895893
10.3498,0.89565
10.4232,0.895409
10.4966,0.895171
10.57,0.894935
10.6434,0.894702
10.7168,0.894471
10.7902,0.894242
10.8636,0.894014
10.937,0.893789
11.0104,0.893566
11.0838,0.893344
11.1572,0.893124
11.2306,0.892905
11.304,0.892688
11.3774,0.892472
11.4508,0.892258
11.5242,0.892044
11.5976,0.891832
11.671,0.891621
11.7444,0.89141
11.8178,0.8912
11.8912,0.890991
11.9646,0.890783
12.038,0.890575
12.1114,0.890367
12.1848,0.89016
12.2582,0.889952
12.3316,0.889745
12.405,0.889538
12.4784,0.889331
12.5518,0.889124
12.6252,0.888916
12.6986,0.888708
12.7721,0.888499
12.8455,0.88829
12.9189,0.88808
12.9923,0.88787
13.0657,0.887658
13.1391,0.887446
13.2125,0.887233
13.2859,0.887018
13.3593,0.886802
13.4327,0.886585
13.5061,0.886366
13.5795,0.886146
13.6529,0.885925
13.7263,0.885701
13.7997,0.885476
13.8731,0.885249
13.9465,0.885019
14.0199,0.884788
14.0933,0.884555
14.1667,0.884319
14.2401,0.884081
14.3135,0.88384
14.3869,0.883597
14.4603,0.883351
14.5337,0.883102
14.6071,0.882851
14.6805,0.882596
14.7539,0.882339
14.8273,0.882078
14.9007,0.881814
14.9741,0.881547
15.0475,0.881276
15.1209,0.881002
15.1943,0.880724
15.2677,0.880442
15.3411,0.880157
15.4145,0.879867
15.4879,0.879574
15.5613,0.879276
15.6348,0.878975
15.7082,0.878669
15.7816,0.878358
15.855,0.878044
15.9284,0.877724
16.0018,0.8774
16.0752,0.877071
16.1486,0.876737
16.222,0.876398
16.2954,0.876169
16.3688,0.875989
16.4422,0.875785
16.5156,0.87555
16.589,0.875295
16.6624,0.875019
16.7358,0.87472
16.8092,0.874404
16.8826,0.874072
16.956,0.873725
17.0294,0.873362
17.1028,0.872985
17.1762,0.872594
17.2496,0.87219
17.323,0.871774
17.3964,0.871345
17.4698,0.870903
17.5432,0.870452
17.6166,0.86999
17.69,0.869519
17.7634,0.869038
17.8368,0.868548
17.9102,0.86805
17.9836,0.867544
18.057,0.86703
18.1304,0.866506
18.2038,0.865972
18.2772,0.865429
18.3506,0.864877
18.4241,0.864315
18.4975,0.863744
18.5709,0.863162
18.6443,0.862569
18.7177,0.861967
18.7911,0.861355
18.8645,0.860734
18.9379,0.860102
19.0113,0.859456
19.0847,0.858798
19.1581,0.858125
19.2315,0.857437
19.3049,0.856734
19.3783,0.856015
19.4517,0.855279
19.5251,0.854526
19.5985,0.853756
19.6719,0.852969
19.7453,0.852167
19.8187,0.851348
19.8921,0.850513
19.9655,0.84966
20.0389,0.848793
20.1123,0.847908
20.1857,0.847007
20.2591,0.84609
20.3325,0.845157
20.4059,0.844208
20.4793,0.843242
20.5527,0.842261
20.6261,0.841265
20.6995,0.840256
20.7729,0.839232
20.8463,0.838194
20.9197,0.837142
20.9931,0.836074
21.0665,0.834991
21.1399,0.833894
21.2133,0.832781
21.2868,0.831653
21.3602,0.830513
21.4336,0.829356
21.507,0.828187
21.5762,0.827072