Folder: battery-power-management-repo/smoothed_normalized_data (part 2)

File: 35.0mA1msec-0.2mA14msec.csv
Capacity_mAh,Voltage_V
0.0,1.0
0.595001,0.962919
1.19,0.938017
1.785,0.922921
2.38,0.91526
2.975,0.913082
3.57001,0.911481
4.16501,0.910477
4.76001,0.909853
5.35501,0.909349
5.95001,0.908888
6.54501,0.908452
7.14001,0.908
7.73501,0.90765
8.33001,0.907221
8.92501,0.906821
9.52001,0.906511
10.115,0.90629
10.71,0.906064
11.305,0.90595
11.9,0.905798
12.495,0.905569
13.09,0.905244
13.685,0.904891
14.28,0.904671
14.875,0.904565
15.47,0.904634
16.065,0.904713
16.66,0.904839
17.255,0.904915
17.85,0.904945
18.445,0.904874
19.04,0.904855
19.635,0.904918
20.23,0.905005
20.825,0.904984
21.42,0.904817
22.015,0.904656
22.61,0.904484
23.205,0.904309
23.8,0.904153
24.395,0.904122
24.99,0.904161
25.585,0.904101
26.18,0.903967
26.775,0.903692
27.37,0.903477
27.965,0.903301
28.56,0.903103
29.155,0.902782
29.75,0.902579
30.345,0.902457
30.94,0.902284
31.535,0.901989
32.13,0.901711
32.725,0.901486
33.3201,0.901303
33.9151,0.901083
34.5101,0.900907
35.1051,0.900581
35.7001,0.900265
36.2951,0.899796
36.8901,0.899302
37.4851,0.898923
38.0801,0.898479
38.6751,0.898185
39.2701,0.897882
39.8651,0.897629
40.4601,0.897473
41.0551,0.897288
41.6501,0.8972
42.2451,0.897203
42.8401,0.896963
43.4351,0.896808
44.0301,0.896728
44.6251,0.896659
45.2201,0.896474
45.8151,0.89627
46.4101,0.896073
47.0051,0.895763
47.6001,0.895521
48.1951,0.895277
48.7901,0.895221
49.3851,0.895124
49.9801,0.895048
50.5751,0.894903
51.1701,0.894733
51.7651,0.894513
52.3601,0.894309
52.9551,0.894126
53.5501,0.893925
54.1451,0.89372
54.7401,0.893521
55.3351,0.893312
55.9301,0.893092
56.5251,0.892898
57.1201,0.892704
57.7151,0.892529
58.3101,0.892344
58.9051,0.892103
59.5001,0.891852
60.0951,0.891682
60.6901,0.8916
61.2851,0.89157
61.8801,0.891626
62.4751,0.891577
63.0701,0.891511
63.6651,0.89134
64.2601,0.891096
64.8551,0.890801
65.4501,0.890413
66.0451,0.890014
66.6401,0.889787
67.2351,0.889535
67.8301,0.889405
68.4251,0.889489
69.0201,0.889635
69.6151,0.889686
70.2101,0.889497
70.8051,0.889279
71.4001,0.888988
71.9951,0.888537
72.5901,0.888039
73.1851,0.887677
73.7801,0.887326
74.3751,0.886993
74.9701,0.886417
75.5651,0.886036
76.1601,0.8856
76.7551,0.885043
77.3501,0.884581
77.9451,0.884045
78.5401,0.883571
79.1351,0.883001
79.7301,0.882486
80.3251,0.882025
80.9201,0.881524
81.5151,0.881144
82.1101,0.880929
82.7051,0.880533
83.3001,0.880218
83.8951,0.879804
84.4901,0.879375
85.0851,0.87894
85.6801,0.878396
86.2751,0.877889
86.8701,0.877287
87.4651,0.87659
88.0601,0.87591
88.6551,0.875439
89.2501,0.874988
89.8451,0.874744
90.4401,0.874338
91.0351,0.873728
91.6301,0.873101
92.2251,0.872414
92.8201,0.871727
93.4151,0.871127
94.0101,0.870755
94.6051,0.870305
95.2001,0.869854
95.7951,0.869412
96.3901,0.868984
96.9851,0.868491
97.5801,0.86793
98.1751,0.867357
98.7702,0.866984
99.3652,0.866548
99.9602,0.866137
100.555,0.865628
101.15,0.865091
101.745,0.864488
102.34,0.863846
102.935,0.863268
103.53,0.862822
104.125,0.862544
104.72,0.862152
105.315,0.861909
105.91,0.861551
106.505,0.861177
107.1,0.860828
107.695,0.860498
108.29,0.860143
108.885,0.859807
109.48,0.859437
110.075,0.859065
110.67,0.858589
111.265,0.858017
111.86,0.857368
112.455,0.856776
113.05,0.856146
113.645,0.855446
114.24,0.85485
114.835,0.854353
115.43,0.853912
116.025,0.85342
116.62,0.852879
117.215,0.852274
117.81,0.851705
118.405,0.851119
119,0.850566
119.595,0.850014
120.19,0.849413
120.785,0.848874
121.38,0.848239
121.975,0.847586
122.57,0.846831
123.165,0.846182
123.76,0.845606
124.355,0.84519
124.95,0.844879
125.545,0.844632
126.14,0.8443
126.735,0.844042
127.33,0.843558
127.925,0.843005
128.52,0.842287
129.115,0.841574
129.71,0.840908
130.305,0.840101
130.9,0.839209
131.495,0.838417
132.09,0.837598
132.685,0.836675
133.28,0.835759
133.875,0.834887
134.47,0.834015
135.065,0.833047
135.66,0.832065
136.255,0.831086
136.85,0.83021
137.445,0.829317
138.04,0.828376
138.635,0.827366
139.23,0.826267
139.825,0.825112
140.42,0.824099
141.015,0.823012
141.61,0.822233
142.205,0.821482
142.8,0.820722
143.395,0.819839
143.99,0.818781
144.585,0.817584
145.18,0.816294
145.775,0.815174
146.37,0.814301
146.965,0.813432
147.56,0.81262
148.155,0.81187
148.75,0.8111
149.345,0.810054
149.94,0.808849
150.535,0.807759
151.13,0.806661
151.725,0.805481
152.32,0.804274
152.915,0.803114
153.51,0.80202
154.105,0.800801
154.7,0.799526
155.295,0.798209
155.89,0.796924
156.485,0.795578
157.08,0.794109
157.675,0.792552
158.27,0.790978
158.865,0.789343
159.46,0.787722
160.055,0.786145
160.65,0.784622
161.245,0.783361
161.84,0.78211
162.435,0.78035
163.03,0.777367
163.625,0.773754
164.22,0.76966
164.815,0.765596
165.41,0.761784
166.005,0.758209
166.6,0.755577
167.195,0.753394
167.79,0.751178
168.385,0.748869
168.98,0.746741
169.575,0.744925
170.17,0.743164
170.765,0.741394
171.36,0.73969
171.955,0.738028
172.55,0.736491
173.145,0.73459
173.74,0.732499
174.335,0.730313
174.93,0.72827
175.525,0.726387
176.12,0.72469
176.715,0.723115
177.31,0.721786
177.905,0.7205
177.979,0.720348

File: 40.0mA1msec-0.2mA9msec.csv
Capacity_mAh,Voltage_V
0.0,1.0
0.429612,0.982632
0.859224,0.968069
1.28884,0.956077
1.71845,0.946425
2.14806,0.938881
2.57767,0.933213
3.00728,0.929188
3.43689,0.926574
3.86651,0.925139
4.29612,0.924651
4.72573,0.925347
5.15534,0.925787
5.58495,0.925817
6.01456,0.925664
6.44418,0.925361
6.87379,0.924972
7.3034,0.924578
7.73301,0.924191
8.16262,0.923819
8.59224,0.923471
9.02185,0.923138
9.45146,0.922839
9.88107,0.922566
10.3107,0.922323
10.7403,0.922123
11.1699,0.921951
11.5995,0.9218
12.0291,0.921681
12.4587,0.921582
12.8884,0.921479
13.318,0.921363
13.7476,0.921231
14.1772,0.921091
14.6068,0.920938
15.0364,0.920779
15.466,0.92061
15.8956,0.920421
16.3252,0.920196
16.7549,0.919959
17.1845,0.919728
17.6141,0.919493
18.0437,0.919287
18.4733,0.919097
18.9029,0.918935
19.3325,0.918803
19.7621,0.918674
20.1918,0.91855
20.6214,0.918438
21.051,0.918318
21.4806,0.91818
21.9102,0.918025
22.3398,0.91786
22.7694,0.917677
23.199,0.917477
23.6286,0.917264
24.0583,0.917027
24.4879,0.916771
24.9175,0.916504
25.3471,0.916231
25.7767,0.915972
26.2063,0.915705
26.6359,0.915461
27.0655,0.915236
27.4952,0.915033
27.9248,0.91484
28.3544,0.914642
28.784,0.914449
29.2136,0.914251
29.6432,0.914042
30.0728,0.913822
30.5024,0.913592
30.932,0.913361
31.3617,0.913118
31.7913,0.912889
32.2209,0.912654
32.6505,0.912415
33.0801,0.912178
33.5097,0.911917
33.9393,0.911654
34.3689,0.911403
34.7986,0.911158
35.2282,0.910925
35.6578,0.910698
36.0874,0.910482
36.517,0.910268
36.9466,0.91005
37.3762,0.909831
37.8058,0.909599
38.2354,0.909365
38.6651,0.909128
39.0947,0.908905
39.5243,0.908686
39.9539,0.908455
40.3835,0.908226
40.8131,0.90799
41.2427,0.907749
41.6723,0.907506
42.102,0.907237
42.5316,0.906977
42.9612,0.906718
43.3908,0.906463
43.8204,0.906205
44.25,0.905957
44.6796,0.90572
45.1092,0.905489
45.5388,0.905263
45.9685,0.905032
46.3981,0.904787
46.8277,0.904534
47.2573,0.904281
47.6869,0.904035
48.1165,0.903773
48.5461,0.903496
48.9757,0.903215
49.4054,0.902941
49.835,0.90267
50.2646,0.902386
50.6942,0.902083
51.1238,0.901785
51.5534,0.901497
51.983,0.901213
52.4126,0.900923
52.8422,0.900635
53.2719,0.90034
53.7015,0.900041
54.1311,0.899728
54.5607,0.899407
54.9903,0.899072
55.4199,0.898742
55.8495,0.898412
56.2791,0.898091
56.7088,0.897774
57.1384,0.897443
57.568,0.897098
57.9976,0.896748
58.4272,0.896396
58.8568,0.89604
59.2864,0.89568
59.716,0.89533
60.1456,0.894986
60.5753,0.894641
61.0049,0.894289
61.4345,0.893926
61.8641,0.89357
62.2937,0.893202
62.7233,0.892838
63.1529,0.892473
63.5825,0.892108
64.0122,0.891754
64.4418,0.891405
64.8714,0.891055
65.301,0.890711
65.7306,0.890344
66.1602,0.889969
66.5898,0.889596
67.0194,0.889224
67.449,0.888845
67.8787,0.888459
68.3083,0.888065
68.7379,0.887659
69.1675,0.887249
69.5971,0.886824
70.0267,0.886389
70.4563,0.885944
70.8859,0.885483
71.3156,0.885032
71.7452,0.884575
72.1748,0.884125
72.6044,0.883674
73.034,0.883222
73.4636,0.882756
73.8932,0.882309
74.3228,0.881849
74.7524,0.881376
75.1821,0.880905
75.6117,0.880419
76.0413,0.879914
76.4709,0.879398
76.9005,0.878856
77.3301,0.878308
77.7597,0.877754
78.1893,0.877191
78.619,0.876611
79.0486,0.876034
79.4782,0.875461
79.9078,0.87489
80.3374,0.874316
80.767,0.873737
81.1966,0.873167
81.6262,0.872597
82.0558,0.872026
82.4855,0.871469
82.9151,0.870887
83.3447,0.870305
83.7743,0.869721
84.2039,0.869128
84.6335,0.868532
85.0631,0.867939
85.4927,0.867339
85.9224,0.866741
86.352,0.866149
86.7816,0.865552
87.2112,0.864951
87.6408,0.864342
88.0704,0.863729
88.5,0.863103
88.9296,0.862474
89.3592,0.861834
89.7889,0.861182
90.2185,0.860502
90.6481,0.859807
91.0777,0.859096
91.5073,0.858353
91.9369,0.857609
92.3665,0.856849
92.7961,0.856088
93.2258,0.855329
93.6554,0.854559
94.085,0.853781
94.5146,0.853001
94.9442,0.852224
95.3738,0.851442
95.8034,0.850656
96.233,0.849862
96.6626,0.849064
97.0923,0.848249
97.5219,0.847429
97.9515,0.84659
98.3811,0.845737
98.8107,0.844875
99.2403,0.844008
99.6699,0.843123
100.1,0.842228
100.529,0.841321
100.959,0.840408
101.388,0.839493
101.818,0.838566
102.248,0.837624
102.677,0.836684
103.107,0.835738
103.536,0.834788
103.966,0.833839
104.396,0.83288
104.825,0.831897
105.255,0.8309
105.684,0.829891
106.114,0.82887
106.544,0.82784
106.973,0.826804
107.403,0.82575
107.833,0.824686
108.262,0.823612
108.692,0.822521
109.121,0.8214
109.551,0.820266
109.981,0.819108
110.41,0.817931
110.84,0.816729
111.269,0.815513
111.699,0.814277
112.129,0.813009
112.558,0.81173
112.988,0.810426
113.418,0.809097
113.847,0.807747
114.277,0.806363
114.706,0.804957
115.136,0.803522
115.566,0.802048
115.995,0.80053
116.425,0.798983
116.854,0.797397
117.284,0.795768
117.714,0.794112
118.143,0.792424
118.573,0.790693
119.002,0.788929
119.432,0.787112
119.862,0.785253
120.291,0.783349
120.721,0.781396
121.151,0.779406
121.58,0.777366
122.01,0.775275
122.439,0.773134
122.869,0.770919
123.299,0.768625
123.728,0.766247
124.158,0.763775
124.587,0.761208
125.017,0.758515
125.447,0.755589
125.876,0.752407
126.306,0.74905
126.735,0.745612
127.165,0.74218
127.595,0.738836
127.67,0.738264

File: 40.0mA1msec-0.2mA19msec.csv
Capacity_mAh,Voltage_V
0.0,1.0
0.526209,0.968403
1.05242,0.947058
1.57863,0.933968
2.10484,0.927139
2.63105,0.924846
3.15725,0.923097
3.68346,0.922122
4.20967,0.921632
4.73588,0.921294
5.26209,0.920993
5.7883,0.920741
6.31451,0.920538
6.84072,0.920366
7.36693,0.920183
7.89314,0.920062
8.41935,0.919917
8.94556,0.919792
9.47176,0.919558
9.99797,0.919349
10.5242,0.919258
11.0504,0.919115
11.5766,0.919021
12.1028,0.918813
12.629,0.918609
13.1552,0.918532
13.6814,0.918467
14.2076,0.918346
14.7339,0.918351
15.2601,0.91839
15.7863,0.918335
16.3125,0.918245
16.8387,0.918259
17.3649,0.918273
17.8911,0.918241
18.4173,0.91819
18.9435,0.918318
19.4697,0.91858
19.9959,0.918758
20.5222,0.919002
21.0484,0.919285
21.5746,0.919204
22.1008,0.918886
22.627,0.918787
23.1532,0.918261
23.6794,0.917985
24.2056,0.917888
24.7318,0.918001
25.258,0.918217
25.7842,0.91836
26.3105,0.918398
26.8367,0.918528
27.3629,0.918101
27.8891,0.917741
28.4153,0.91752
28.9415,0.917407
29.4677,0.917345
29.9939,0.917329
30.5201,0.917325
31.0463,0.917258
31.5725,0.917086
32.0988,0.91677
32.625,0.916515
33.1512,0.916232
33.6774,0.916039
34.2036,0.915786
34.7298,0.915452
35.256,0.915074
35.7822,0.914623
36.3084,0.914263
36.8346,0.914067
37.3608,0.914061
37.8871,0.91427
38.4133,0.914479
38.9395,0.914571
39.4657,0.914598
39.9919,0.914445
40.5181,0.914294
41.0443,0.91417
41.5705,0.914038
42.0967,0.913932
42.6229,0.913812
43.1491,0.913667
43.6754,0.913563
44.2016,0.913435
44.7278,0.913321
45.254,0.913196
45.7802,0.913045
46.3064,0.912858
46.8326,0.912624
47.3588,0.912332
47.885,0.912012
48.4112,0.911693
48.9374,0.911377
49.4637,0.911058
49.9899,0.910785
50.5161,0.910513
51.0423,0.910237
51.5685,0.909981
52.0947,0.909739
52.6209,0.909519
53.1471,0.909303
53.6733,0.909107
54.1995,0.908951
54.7258,0.908807
55.252,0.908646
55.7782,0.908486
56.3044,0.908342
56.8306,0.90819
57.3568,0.908014
57.883,0.907844
58.4092,0.907677
58.9354,0.907517
59.4616,0.907365
59.9878,0.907213
60.5141,0.907099
61.0403,0.906993
61.5665,0.90686
62.0927,0.906727
62.6189,0.906545
63.1451,0.906332
63.6713,0.90611
64.1975,0.905862
64.7237,0.905582
65.2499,0.905289
65.7761,0.905002
66.3024,0.90473
66.8286,0.904449
67.3548,0.90417
67.881,0.903917
68.4072,0.903676
68.9334,0.903422
69.4596,0.90315
69.9858,0.902859
70.512,0.902547
71.0382,0.902225
71.5644,0.901912
72.0907,0.901612
72.6169,0.901341
73.1431,0.901082
73.6693,0.900789
74.1955,0.900482
74.7217,0.900178
75.2479,0.899889
75.7741,0.89962
76.3003,0.899394
76.8265,0.899212
77.3527,0.89904
77.879,0.898876
78.4052,0.898711
78.9314,0.898527
79.4576,0.898315
79.9838,0.898082
80.51,0.897855
81.0362,0.897632
81.5624,0.897404
82.0886,0.897185
82.6148,0.89695
83.141,0.896697
83.6673,0.896447
84.1935,0.896185
84.7197,0.895921
85.2459,0.895664
85.7721,0.895428
86.2983,0.895232
86.8245,0.895023
87.3507,0.894829
87.8769,0.894669
88.4031,0.894514
88.9293,0.894354
89.4556,0.89419
89.9818,0.894021
90.508,0.893789
91.0342,0.893429
91.5604,0.893026
92.0866,0.892595
92.6128,0.892211
93.139,0.891917
93.6652,0.891659
94.1914,0.891461
94.7176,0.891312
95.2439,0.891135
95.7701,0.890942
96.2963,0.890662
96.8225,0.890314
97.3487,0.889975
97.8749,0.889561
98.4011,0.889221
98.9273,0.888965
99.4535,0.888761
99.9797,0.888508
100.506,0.888227
101.032,0.887918
101.558,0.887563
102.085,0.88709
102.611,0.886569
103.137,0.886092
103.663,0.885654
104.189,0.885299
104.716,0.885104
105.242,0.88506
105.768,0.885004
106.294,0.88488
106.82,0.884559
107.347,0.88434
107.873,0.884122
108.399,0.883896
108.925,0.883736
109.452,0.883543
109.978,0.883282
110.504,0.883032
111.03,0.882425
111.556,0.881878
112.083,0.881339
112.609,0.880723
113.135,0.880222
113.661,0.879762
114.187,0.8793
114.714,0.879012
115.24,0.878506
115.766,0.877882
116.292,0.877256
116.818,0.876674
117.345,0.876113
117.871,0.875686
118.397,0.875321
118.923,0.874912
119.449,0.874408
119.976,0.873924
120.502,0.873464
121.028,0.873085
121.554,0.87275
122.081,0.87255
122.607,0.872303
123.133,0.87197
123.659,0.871549
124.185,0.871274
124.712,0.871088
125.238,0.870993
125.764,0.870917
126.29,0.870857
126.816,0.870662
127.343,0.87026
127.869,0.869746
128.395,0.869161
128.921,0.868658
129.447,0.868261
129.974,0.867875
130.5,0.86756
131.026,0.867262
131.552,0.866886
132.078,0.866537
132.605,0.866145
133.131,0.865762
133.657,0.865437
134.183,0.865099
134.71,0.864619
135.236,0.864013
135.762,0.863198
136.288,0.862378
136.814,0.861669
137.341,0.861088
137.867,0.860525
138.393,0.86015
138.919,0.859854
139.445,0.859467
139.972,0.858917
140.498,0.85832
141.024,0.857706
141.55,0.857084
142.076,0.856602
142.603,0.856239
143.129,0.855869
143.655,0.855479
144.181,0.854911
144.708,0.854262
145.234,0.853546
145.76,0.852982
146.286,0.852698
146.812,0.852237
147.339,0.851868
147.865,0.851243
148.391,0.85039
148.917,0.849638
149.443,0.848801
149.97,0.848089
150.496,0.847525
151.022,0.846726
151.548,0.845891
152.074,0.844886
152.601,0.843783
153.127,0.842919
153.653,0.842389
154.179,0.842021
154.705,0.841714
155.232,0.84134
155.758,0.840774
156.284,0.840069
156.81,0.839245
157.337,0.838305
157.695,0.837599

File: 40.0mA2msec-0.2mA18msec.csv
Capacity_mAh,Voltage_V
0.0,1.0
0.412195,0.98232
0.82439,0.967287
1.23659,0.954693
1.64878,0.94433
2.06098,0.935993
2.47317,0.929472
2.88537,0.924561
3.29756,0.921052
3.70976,0.918739
4.12195,0.917413
4.53415,0.917056
4.94634,0.917431
5.35854,0.917146
5.77073,0.916635
6.18293,0.915967
6.59512,0.915216
7.00732,0.914473
7.41951,0.913815
7.83171,0.913247
8.2439,0.912764
8.6561,0.912367
9.06829,0.912047
9.48049,0.911783
9.89268,0.91158
10.3049,0.911412
10.7171,0.911278
11.1293,0.911175
11.5415,0.911095
11.9537,0.911056
12.3659,0.911037
12.778,0.911022
13.1902,0.911001
13.6024,0.91098
14.0146,0.910955
14.4268,0.910923
14.839,0.910893
15.2512,0.910862
15.6634,0.910835
16.0756,0.910816
16.4878,0.910787
16.9,0.91075
17.3122,0.910711
17.7244,0.910655
18.1366,0.910591
18.5488,0.910524
18.961,0.91045
19.3732,0.910391
19.7854,0.910341
20.1976,0.910307
20.6098,0.910288
21.0219,0.910256
21.4341,0.910217
21.8463,0.910169
22.2585,0.910108
22.6707,0.910033
23.0829,0.909944
23.4951,0.909847
23.9073,0.909747
24.3195,0.909635
24.7317,0.909512
25.1439,0.909358
25.5561,0.909192
25.9683,0.909016
26.3805,0.908823
26.7927,0.908627
27.2049,0.908432
27.6171,0.908236
28.0293,0.908054
28.4415,0.907874
28.8537,0.907714
29.2659,0.907572
29.678,0.907441
30.0902,0.907323
30.5024,0.907197
30.9146,0.907055
31.3268,0.906891
31.739,0.906709
32.1512,0.906513
32.5634,0.906311
32.9756,0.906097
33.3878,0.905887
33.8,0.905679
34.2122,0.905482
34.6244,0.90528
35.0366,0.905078
35.4488,0.904878
35.861,0.904675
36.2732,0.904468
36.6854,0.904276
37.0976,0.9041
37.5098,0.903937
37.9219,0.903767
38.3341,0.903584
38.7463,0.903389
39.1585,0.903158
39.5707,0.902892
39.9829,0.902598
40.3951,0.902303
40.8073,0.902012
41.2195,0.901725
41.6317,0.901426
42.0439,0.90115
42.4561,0.900877
42.8683,0.900593
43.2805,0.9003
43.6927,0.900022
44.1049,0.89974
44.5171,0.899451
44.9293,0.899159
45.3415,0.898861
45.7537,0.898545
46.1658,0.898212
46.578,0.897859
46.9902,0.897489
47.4024,0.897103
47.8146,0.896705
48.2268,0.896325
48.639,0.89597
49.0512,0.895635
49.4634,0.895303
49.8756,0.894972
50.2878,0.894628
50.7,0.894284
51.1122,0.893939
51.5244,0.8936
51.9366,0.893274
52.3488,0.892956
52.761,0.89263
53.1732,0.8923
53.5854,0.891955
53.9976,0.891598
54.4097,0.891223
54.8219,0.890848
55.2341,0.890453
55.6463,0.890041
56.0585,0.8896
56.4707,0.889156
56.8829,0.888731
57.2951,0.888319
57.7073,0.88792
58.1195,0.887531
58.5317,0.887143
58.9439,0.886747
59.3561,0.88635
59.7683,0.885974
60.1805,0.885589
60.5927,0.885203
61.0049,0.884818
61.4171,0.884433
61.8293,0.884045
62.2415,0.883673
62.6537,0.883314
63.0658,0.882954
63.478,0.88259
63.8902,0.882218
64.3024,0.881842
64.7146,0.881451
65.1268,0.881062
65.539,0.880676
65.9512,0.880292
66.3634,0.879902
66.7756,0.879483
67.1878,0.879021
67.6,0.878529
68.0122,0.878004
68.4244,0.877454
68.8366,0.876874
69.2488,0.876279
69.661,0.875669
70.0732,0.875049
70.4854,0.874436
70.8976,0.87382
71.3097,0.873204
71.7219,0.872581
72.1341,0.871969
72.5463,0.871398
72.9585,0.87085
73.3707,0.870312
73.7829,0.869778
74.1951,0.869262
74.6073,0.868784
75.0195,0.868332
75.4317,0.867885
75.8439,0.867433
76.2561,0.866976
76.6683,0.866504
77.0805,0.866024
77.4927,0.865528
77.9049,0.865013
78.3171,0.864491
78.7293,0.863967
79.1415,0.863448
79.5536,0.862927
79.9658,0.862411
80.378,0.861889
80.7902,0.861384
81.2024,0.8609
81.6146,0.860419
82.0268,0.859944
82.439,0.859471
82.8512,0.859017
83.2634,0.858581
83.6756,0.858135
84.0878,0.85766
84.5,0.857161
84.9122,0.856632
85.3244,0.85609
85.7366,0.855534
86.1488,0.854969
86.561,0.854398
86.9732,0.853824
87.3854,0.853237
87.7976,0.852629
88.2097,0.852001
88.6219,0.851345
89.0341,0.850667
89.4463,0.849981
89.8585,0.849285
90.2707,0.848582
90.6829,0.847873
91.0951,0.847163
91.5073,0.846458
91.9195,0.845753
92.3317,0.845044
92.7439,0.844326
93.1561,0.843612
93.5683,0.842894
93.9805,0.842177
94.3927,0.841448
94.8049,0.840706
95.2171,0.839944
95.6293,0.839159
96.0415,0.838354
96.4536,0.837526
96.8658,0.836679
97.278,0.835795
97.6902,0.834902
98.1024,0.833995
98.5146,0.833083
98.9268,0.832164
99.339,0.831266
99.7512,0.830377
100.163,0.829474
100.576,0.828532
100.988,0.827535
101.4,0.826489
101.812,0.825396
102.224,0.824262
102.637,0.823088
103.049,0.821852
103.461,0.820569
103.873,0.819245
104.285,0.817859
104.698,0.816412
105.11,0.814944
105.522,0.813477
105.934,0.812024
106.346,0.810613
106.759,0.809233
107.171,0.807911
107.583,0.806648
107.995,0.805449
108.407,0.804268
108.819,0.803093
109.232,0.801909
109.644,0.80072
110.056,0.799522
110.468,0.79831
110.88,0.797078
111.293,0.7958
111.705,0.794458
112.117,0.793053
112.529,0.791563
112.941,0.789995
113.354,0.788373
113.766,0.786714
114.178,0.785002
114.59,0.78323
115.002,0.781399
115.415,0.779512
115.827,0.77758
116.239,0.775607
116.651,0.773573
117.063,0.771471
117.476,0.769306
117.888,0.767063
118.3,0.764753
118.712,0.762374
119.124,0.759987
119.537,0.757528
119.949,0.754845
120.361,0.751959
120.773,0.749118
121.185,0.746196
121.598,0.743176
122.01,0.74004
122.201,0.738536

File: 40.0mA3msec-0.2mA27msec.csv
Capacity_mAh,Voltage_V
0.0,1.0
0.371556,0.984018
0.743112,0.97014
1.11467,0.958219
1.48622,0.948113
1.85778,0.939675
2.22934,0.932763
2.60089,0.927232
2.97245,0.922936
3.34401,0.919732
3.71556,0.917475
4.08712,0.91602
4.45867,0.915224
4.83023,0.915833
5.20179,0.915502
5.57334,0.914914
5.9449,0.914258
6.31645,0.913552
6.68801,0.912824
7.05957,0.912191
7.43112,0.911652
7.80268,0.911292
8.17423,0.911085
8.54579,0.911026
8.91735,0.911044
9.2889,0.911121
9.66046,0.911204
10.032,0.911216
10.4036,0.911135
10.7751,0.91104
11.1467,0.910998
11.5182,0.911
11.8898,0.911022
12.2614,0.911063
12.6329,0.911129
13.0045,0.91122
13.376,0.911352
13.7476,0.911585
14.1191,0.911873
14.4907,0.912232
14.8622,0.912625
15.2338,0.913002
15.6054,0.913401
15.9769,0.913812
16.3485,0.914277
16.72,0.914758
17.0916,0.915203
17.4631,0.915608
17.8347,0.915975
18.2063,0.916296
18.5778,0.916562
18.9494,0.916761
19.3209,0.916955
19.6925,0.917142
20.064,0.917296
20.4356,0.917402
20.8071,0.917443
21.1787,0.917428
21.5503,0.917382
21.9218,0.917292
22.2934,0.917192
22.6649,0.917044
23.0365,0.916849
23.408,0.916673
23.7796,0.916482
24.1511,0.916291
24.5227,0.916102
24.8943,0.915894
25.2658,0.915674
25.6374,0.915424
26.0089,0.915186
26.3805,0.91494
26.752,0.914708
27.1236,0.914475
27.4952,0.914212
27.8667,0.913979
28.2383,0.91379
28.6098,0.913551
28.9814,0.913344
29.3529,0.913123
29.7245,0.91291
30.096,0.912679
30.4676,0.91246
30.8392,0.912278
31.2107,0.912106
31.5823,0.911964
31.9538,0.911872
32.3254,0.911779
32.6969,0.911706
33.0685,0.911615
33.4401,0.911499
33.8116,0.911386
34.1832,0.911209
34.5547,0.911037
34.9263,0.910828
35.2978,0.910622
35.6694,0.910432
36.0409,0.910199
36.4125,0.909943
36.7841,0.909672
37.1556,0.909358
37.5272,0.909045
37.8987,0.908725
38.2703,0.908392
38.6418,0.908082
39.0134,0.907778
39.3849,0.907481
39.7565,0.907211
40.1281,0.906916
40.4996,0.906621
40.8712,0.906326
41.2427,0.906069
41.6143,0.905844
41.9858,0.905641
42.3574,0.905431
42.729,0.905205
43.1005,0.904993
43.4721,0.904781
43.8436,0.904585
44.2152,0.904383
44.5867,0.904161
44.9583,0.90393
45.3298,0.903721
45.7014,0.903538
46.073,0.903327
46.4445,0.903095
46.8161,0.902847
47.1876,0.902579
47.5592,0.90226
47.9307,0.901941
48.3023,0.901593
48.6739,0.901224
49.0454,0.90087
49.417,0.900537
49.7885,0.900224
50.1601,0.899934
50.5316,0.899629
50.9032,0.899302
51.2747,0.898975
51.6463,0.898654
52.0179,0.898325
52.3894,0.898001
52.761,0.897671
53.1325,0.897337
53.5041,0.897023
53.8756,0.896719
54.2472,0.896399
54.6188,0.896053
54.9903,0.895678
55.3619,0.895289
55.7334,0.894901
56.105,0.89452
56.4765,0.894118
56.8481,0.893694
57.2196,0.893268
57.5912,0.892849
57.9628,0.892433
58.3343,0.892031
58.7059,0.891642
59.0774,0.891256
59.449,0.890876
59.8205,0.890496
60.1921,0.890116
60.5636,0.889733
60.9352,0.889351
61.3068,0.888966
61.6783,0.888598
62.0499,0.888217
62.4214,0.887828
62.793,0.887406
63.1645,0.88697
63.5361,0.886525
63.9077,0.886081
64.2792,0.885631
64.6508,0.885174
65.0223,0.884685
65.3939,0.884178
65.7654,0.883674
66.137,0.883171
66.5085,0.882675
66.8801,0.882188
67.2517,0.88169
67.6232,0.881198
67.9948,0.880705
68.3663,0.880212
68.7379,0.879733
69.1094,0.879265
69.481,0.878802
69.8526,0.878333
70.2241,0.877863
70.5957,0.877376
70.9672,0.876889
71.3388,0.876391
71.7103,0.875888
72.0819,0.87539
72.4534,0.874875
72.825,0.87434
73.1966,0.873811
73.5681,0.873262
73.9397,0.872707
74.3112,0.872131
74.6828,0.871546
75.0543,0.870961
75.4259,0.870369
75.7974,0.869768
76.169,0.869169
76.5406,0.868575
76.9121,0.867978
77.2837,0.867389
77.6552,0.866791
78.0268,0.866174
78.3983,0.865548
78.7699,0.864921
79.1415,0.864293
79.513,0.863678
79.8846,0.863049
80.2561,0.862405
80.6277,0.861755
80.9992,0.861092
81.3708,0.860434
81.7423,0.859788
82.1139,0.859123
82.4855,0.858455
82.857,0.857778
83.2286,0.857101
83.6001,0.856423
83.9717,0.85574
84.3432,0.855055
84.7148,0.85437
85.0864,0.853674
85.4579,0.852964
85.8295,0.85226
86.201,0.851535
86.5726,0.850777
86.9441,0.850006
87.3157,0.849214
87.6872,0.848393
88.0588,0.847543
88.4304,0.846646
88.8019,0.845724
89.1735,0.84479
89.545,0.843871
89.9166,0.84295
90.2881,0.842033
90.6597,0.841105
91.0313,0.840198
91.4028,0.839284
91.7744,0.838349
92.1459,0.837408
92.5175,0.836454
92.889,0.835494
93.2606,0.834514
93.6321,0.833527
94.0037,0.83252
94.3753,0.831502
94.7468,0.830465
95.1184,0.829398
95.4899,0.828291
95.8615,0.82715
96.233,0.825956
96.6046,0.824726
96.9761,0.823463
97.3477,0.822182
97.7193,0.820898
98.0908,0.819607
98.4624,0.818297
98.8339,0.816965
99.2055,0.815614
99.577,0.814245
99.9486,0.812826
100.32,0.811364
100.692,0.809863
101.063,0.808312
101.435,0.806717
101.806,0.805074
102.178,0.80339
102.549,0.801645
102.921,0.799852
103.293,0.798005
103.664,0.796088
104.036,0.79408
104.407,0.792004
104.779,0.789861
105.15,0.787635
105.522,0.785331
105.893,0.782959
106.265,0.780519
106.637,0.778014
107.008,0.775618
107.38,0.773119
107.751,0.770403
108.123,0.767658
108.494,0.764864
108.866,0.761989
109.238,0.759014
109.609,0.755951
109.981,0.752762
110.352,0.749454
110.648,0.746716