Folder: battery-power-management-repo/smoothed_normalized_data (part 3)

File: 40.0mA8msec-0.2mA12msec.csv
Capacity_mAh,Voltage_V
0.0,1.0
0.0895557,0.992258
0.179111,0.986333
0.268667,0.982177
0.358223,0.978652
0.447778,0.975117
0.537334,0.971974
0.62689,0.969231
0.716446,0.966505
0.806001,0.963398
0.895557,0.961131
0.985113,0.960234
1.07467,0.959757
1.16422,0.958438
1.25378,0.956672
1.34334,0.954637
1.43289,0.953765
1.52245,0.954123
1.612,0.953473
1.70156,0.95181
1.79111,0.950566
1.88067,0.949799
1.97023,0.949743
2.05978,0.949684
2.14934,0.948254
2.23889,0.94619
2.32845,0.944224
2.418,0.942667
2.50756,0.940889
2.59712,0.940612
2.68667,0.939576
2.77623,0.938126
2.86578,0.937268
2.95534,0.935674
3.04489,0.933589
3.13445,0.933006
3.224,0.932781
3.31356,0.933288
3.40312,0.93282
3.49267,0.931368
3.58223,0.930575
3.67178,0.929836
3.76134,0.929657
3.85089,0.928665
3.94045,0.927718
4.03001,0.927469
4.11956,0.927104
4.20912,0.927786
4.29867,0.92805
4.38823,0.927586
4.47778,0.926936
4.56734,0.926539
4.6569,0.925804
4.74645,0.925296
4.83601,0.924852
4.92556,0.924513
5.01512,0.924207
5.10467,0.923645
5.19423,0.923059
5.28379,0.922388
5.37334,0.921438
5.4629,0.921337
5.55245,0.92092
5.64201,0.92077
5.73156,0.921272
5.82112,0.921261
5.91068,0.921183
6.00023,0.921252
6.08979,0.921827
6.17934,0.922233
6.2689,0.922896
6.35845,0.923571
6.44801,0.92385
6.53757,0.923645
6.62712,0.923562
6.71668,0.923547
6.80623,0.923548
6.89579,0.923316
6.98534,0.923138
7.0749,0.923121
7.16446,0.923038
7.25401,0.922922
7.34357,0.922714
7.43312,0.922542
7.52268,0.922621
7.61223,0.922596
7.70179,0.922324
7.79135,0.922195
7.8809,0.922228
7.97046,0.922134
8.06001,0.922122
8.14957,0.922127
8.23912,0.922066
8.32868,0.922108
8.41824,0.921968
8.50779,0.921717
8.59735,0.921567
8.6869,0.921474
8.77646,0.921359
8.86601,0.921025
8.95557,0.920732
9.04512,0.920517
9.13468,0.920304
9.22424,0.920075
9.31379,0.919816
9.40335,0.919665
9.4929,0.919419
9.58246,0.91905
9.67201,0.918808
9.76157,0.918658
9.85113,0.918454
9.94068,0.918219
10.0302,0.91771
10.1198,0.917454
10.2093,0.91715
10.2989,0.916879
10.3885,0.916772
10.478,0.916528
10.5676,0.916204
10.6571,0.91604
10.7467,0.915802
10.8362,0.915454
10.9258,0.915168
11.0154,0.914821
11.1049,0.914651
11.1945,0.914322
11.284,0.913993
11.3736,0.913679
11.4631,0.913315
11.5527,0.912988
11.6422,0.912719
11.7318,0.912327
11.8214,0.91198
11.9109,0.911632
12.0005,0.911312
12.09,0.910992
12.1796,0.91063
12.2691,0.910252
12.3587,0.909867
12.4482,0.909562
12.5378,0.909201
12.6274,0.909019
12.7169,0.908713
12.8065,0.908257
12.896,0.907865
12.9856,0.907599
13.0751,0.907158
13.1647,0.906833
13.2542,0.906514
13.3438,0.906137
13.4334,0.905812
13.5229,0.905365
13.6125,0.904972
13.702,0.9046
13.7916,0.904147
13.8811,0.9039
13.9707,0.903508
14.0602,0.903041
14.1498,0.902579
14.2394,0.902053
14.3289,0.90167
14.4185,0.901303
14.508,0.900891
14.5976,0.900426
14.6871,0.900039
14.7767,0.899563
14.8662,0.899178
14.9558,0.899002
15.0454,0.898525
15.1349,0.897984
15.2245,0.897456
15.314,0.896904
15.4036,0.896524
15.4931,0.896092
15.5827,0.895508
15.6722,0.895065
15.7618,0.894607
15.8514,0.894147
15.9409,0.893574
16.0305,0.893139
16.12,0.892685
16.2096,0.892106
16.2991,0.891572
16.3887,0.891005
16.4782,0.89045
16.5678,0.889871
16.6574,0.889277
16.7469,0.888699
16.8365,0.88813
16.926,0.887652
17.0156,0.886984
17.1051,0.886391
17.1947,0.885823
17.2842,0.885256
17.3738,0.884611
17.4634,0.883974
17.5529,0.883311
17.6425,0.882602
17.732,0.881852
17.8216,0.881167
17.9111,0.880409
18.0007,0.87976
18.0902,0.879033
18.1798,0.878373
18.2694,0.877699
18.3589,0.877041
18.4485,0.876431
18.538,0.875647
18.6276,0.874845
18.7171,0.874068
18.8067,0.873302
18.8963,0.872615
18.9858,0.871891
19.0754,0.870955
19.1649,0.87012
19.2545,0.86927
19.344,0.868472
19.4336,0.867612
19.5231,0.86668
19.6127,0.86577
19.7023,0.864886
19.7918,0.863814
19.8814,0.862788
19.9709,0.861713
20.0605,0.860675
20.15,0.859703
20.2396,0.858648
20.3291,0.857636
20.4187,0.856433
20.5083,0.855437
20.5978,0.854514
20.6874,0.853438
20.7769,0.852408
20.8665,0.8513
20.956,0.850181
21.0456,0.849002
21.1351,0.847886
21.2247,0.846769
21.3143,0.845564
21.4038,0.844303
21.4934,0.843237
21.5829,0.841901
21.6725,0.840616
21.762,0.839425
21.8516,0.838197
21.9411,0.836948
22.0307,0.835686
22.1203,0.834298
22.2098,0.832828
22.2994,0.831401
22.3889,0.830075
22.4785,0.828525

File: 50.0mA1msec-0.2mA19msec.csv
Capacity_mAh,Voltage_V
0.0,1.0
0.646348,0.959511
1.2927,0.933198
1.93904,0.918145
2.58539,0.911434
3.23174,0.910452
3.87809,0.909535
4.52444,0.908947
5.17079,0.908278
5.81713,0.907517
6.46348,0.906801
7.10983,0.906218
7.75618,0.90571
8.40253,0.905265
9.04887,0.904968
9.69522,0.904821
10.3416,0.904776
10.9879,0.904698
11.6343,0.904562
12.2806,0.904475
12.927,0.904302
13.5733,0.904111
14.2197,0.90403
14.866,0.904002
15.5124,0.904016
16.1587,0.903911
16.8051,0.903689
17.4514,0.903529
18.0977,0.903437
18.7441,0.903471
19.3904,0.903574
20.0368,0.903688
20.6831,0.903854
21.3295,0.904004
21.9758,0.904107
22.6222,0.904089
23.2685,0.904053
23.9149,0.904029
24.5612,0.904062
25.2076,0.904109
25.8539,0.904279
26.5003,0.904484
27.1466,0.904603
27.793,0.904495
28.4393,0.904191
29.0857,0.903816
29.732,0.903454
30.3784,0.903079
31.0247,0.902797
31.6711,0.902592
32.3174,0.902363
32.9638,0.902095
33.6101,0.9018
34.2565,0.9015
34.9028,0.901173
35.5492,0.900799
36.1955,0.900455
36.8418,0.90014
37.4882,0.899846
38.1345,0.899506
38.7809,0.899091
39.4272,0.898714
40.0736,0.898386
40.7199,0.898094
41.3663,0.897817
42.0126,0.897584
42.659,0.897386
43.3053,0.897112
43.9517,0.896806
44.598,0.896498
45.2444,0.896239
45.8907,0.896014
46.5371,0.895781
47.1834,0.895567
47.8298,0.895385
48.4761,0.895237
49.1225,0.895106
49.7688,0.894969
50.4152,0.894855
51.0615,0.894743
51.7079,0.894622
52.3542,0.894494
53.0006,0.894381
53.6469,0.894261
54.2932,0.894076
54.9396,0.893852
55.5859,0.893617
56.2323,0.893343
56.8786,0.893088
57.525,0.892855
58.1713,0.892664
58.8177,0.892442
59.464,0.892164
60.1104,0.89186
60.7567,0.891516
61.4031,0.89121
62.0494,0.890868
62.6958,0.890387
63.3421,0.889849
63.9885,0.889305
64.6348,0.888727
65.2812,0.888303
65.9275,0.887997
66.5739,0.887826
67.2202,0.887863
67.8666,0.887546
68.5129,0.88695
69.1593,0.886187
69.8056,0.885362
70.452,0.884657
71.0983,0.884098
71.7447,0.883704
72.391,0.883484
73.0373,0.883218
73.6837,0.882905
74.33,0.882599
74.9764,0.882461
75.6227,0.88236
76.2691,0.882311
76.9154,0.88214
77.5618,0.881794
78.2081,0.881369
78.8545,0.880835
79.5008,0.880281
80.1472,0.879736
80.7935,0.879195
81.4399,0.878793
82.0862,0.878266
82.7326,0.877614
83.3789,0.876811
84.0253,0.875918
84.6716,0.87509
85.318,0.874525
85.9643,0.874208
86.6107,0.874185
87.257,0.874209
87.9034,0.874143
88.5497,0.873899
89.1961,0.873574
89.8424,0.873185
90.4887,0.872877
91.1351,0.87253
91.7814,0.872193
92.4278,0.871782
93.0741,0.87125
93.7205,0.870656
94.3668,0.870134
95.0132,0.869627
95.6595,0.869097
96.3059,0.868499
96.9522,0.867841
97.5986,0.867111
98.2449,0.866315
98.8913,0.865547
99.5376,0.86491
100.184,0.864374
100.83,0.863865
101.477,0.863335
102.123,0.862753
102.769,0.862153
103.416,0.861537
104.062,0.860961
104.708,0.86043
105.355,0.859914
106.001,0.859322
106.647,0.858673
107.294,0.857932
107.94,0.857171
108.586,0.856418
109.233,0.855693
109.879,0.855004
110.526,0.854357
111.172,0.85376
111.818,0.853194
112.465,0.852623
113.111,0.852116
113.757,0.851573
114.404,0.851007
115.05,0.850411
115.696,0.849774
116.343,0.84915
116.989,0.84855
117.635,0.847917
118.282,0.847336
118.928,0.846673
119.574,0.845942
120.221,0.845257
120.867,0.844577
121.513,0.843898
122.16,0.843252
122.806,0.842578
123.453,0.841864
124.099,0.841153
124.745,0.84048
125.392,0.839868
126.038,0.839436
126.684,0.838784
127.331,0.837886
127.977,0.836832
128.623,0.835635
129.27,0.834561
129.916,0.833499
130.562,0.832358
131.209,0.83141
131.855,0.830524
132.501,0.829755
133.148,0.829165
133.794,0.828723
134.44,0.82835
135.087,0.827924
135.733,0.827216
136.379,0.826373
137.026,0.825543
137.672,0.824742
138.319,0.82398
138.965,0.823191
139.611,0.822331
140.258,0.821401
140.904,0.820455
141.55,0.819355
142.197,0.818266
142.843,0.817148
143.489,0.816029
144.136,0.814894
144.782,0.813743
145.428,0.812592
146.075,0.811424
146.721,0.810132
147.367,0.808827
148.014,0.807465
148.66,0.806057
149.306,0.80462
149.953,0.803174
150.599,0.801781
151.245,0.800454
151.892,0.799223
152.538,0.798018
153.185,0.796723
153.831,0.795274
154.477,0.793653
155.124,0.791915
155.77,0.790044
156.416,0.788223
157.063,0.786542
157.709,0.784965
158.355,0.783406
159.002,0.781891
159.648,0.780587
160.294,0.779132
160.941,0.776916
161.587,0.774002
162.233,0.770546
162.88,0.766862
163.526,0.763215
164.172,0.759851
164.819,0.757074
165.465,0.754585
166.111,0.751939
166.758,0.749438
167.404,0.747242
168.051,0.745493
168.697,0.744207
169.343,0.743295
169.99,0.742651
170.636,0.74205
171.282,0.741452
171.929,0.740851
172.575,0.740252
173.221,0.739665
173.868,0.739139
174.514,0.73865
175.16,0.738167
175.807,0.737728
176.453,0.737265
177.099,0.736827
177.746,0.736355
178.392,0.735866
179.038,0.735354
179.685,0.734837
180.331,0.734358
180.977,0.733885
181.624,0.733372
182.27,0.732868
182.917,0.73233
183.563,0.731724
184.209,0.731034
184.856,0.73031
185.502,0.729601
186.148,0.728855
186.795,0.728081
187.441,0.727261
188.087,0.726469
188.734,0.725684
189.38,0.724861
190.026,0.724016
190.673,0.723125
191.319,0.722195
191.965,0.721254
192.612,0.720332
193.258,0.719453
193.437,0.71922