Folder: battery-power-management-repo/oddballs/norm_smooth

Note: README.md
# Low-Power AI/ML Hardware Battery Life Optimization

This project will focus on how to improve battery life for a low-power SoC system. Researchers will explore the impacts that different power modes (e.g., clock gating, power gating, voltage and frequency scaling, and the corresponding changes to SoC inference runtimes) will have on end-to-end battery life.

File: 30.0mA4msec-0.2mA6msec.csv
Capacity_mAh,Voltage_V
0.0,1.0
0.109416,0.998013
0.218833,0.996052
0.328249,0.994118
0.437666,0.992209
0.547082,0.990326
0.656498,0.988468
0.765915,0.986636
0.875331,0.984828
0.984747,0.983046
1.09416,0.981288
1.20358,0.979555
1.313,0.977846
1.42241,0.976162
1.53183,0.974501
1.64125,0.972864
1.75066,0.971251
1.86008,0.969661
1.96949,0.968094
2.07891,0.966551
2.18833,0.96503
2.29774,0.963532
2.40716,0.962057
2.51658,0.960603
2.62599,0.959172
2.73541,0.957763
2.84483,0.956376
2.95424,0.95501
3.06366,0.953666
3.17308,0.952343
3.28249,0.951041
3.39191,0.949759
3.50132,0.948499
3.61074,0.947259
3.72016,0.946039
3.82957,0.944839
3.93899,0.943659
4.04841,0.942499
4.15782,0.941358
4.26724,0.940237
4.37666,0.939135
4.48607,0.938052
4.59549,0.936988
4.7049,0.935942
4.81432,0.934915
4.92374,0.933906
5.03315,0.932915
5.14257,0.931942
5.25199,0.930987
5.3614,0.930049
5.47082,0.929129
5.58024,0.928226
5.68965,0.927339
5.79907,0.92647
5.90848,0.925617
6.0179,0.92478
6.12732,0.92396
6.23673,0.923156
6.34615,0.922367
6.45557,0.921595
6.56498,0.920837
6.6744,0.920095
6.78382,0.919368
6.89323,0.918656
7.00265,0.917959
7.11207,0.917276
7.22148,0.916608
7.3309,0.915954
7.44031,0.915314
7.54973,0.914688
7.65915,0.914075
7.76856,0.913476
7.87798,0.91289
7.9874,0.912317
8.09681,0.911757
8.20623,0.91121
8.31565,0.910675
8.42506,0.910153
8.53448,0.909642
8.64389,0.909144
8.75331,0.908658
8.86273,0.908183
8.97214,0.907719
9.08156,0.907267
9.19098,0.906826
9.30039,0.906396
9.40981,0.905976
9.51923,0.905567
9.62864,0.905168
9.73806,0.904779
9.84747,0.9044
9.95689,0.904031
10.0663,0.903672
10.1757,0.903322
10.2851,0.902981
10.3946,0.902649
10.504,0.902326
10.6134,0.902012
10.7228,0.901706
10.8322,0.901408
10.9416,0.901118
11.0511,0.900837
11.1605,0.900563
11.2699,0.900296
11.3793,0.900037
11.4887,0.899785
11.5981,0.89954
11.7076,0.899302
11.817,0.899071
11.9264,0.898846
12.0358,0.898627
12.1452,0.898414
12.2546,0.898207
12.3641,0.898006
12.4735,0.89781
12.5829,0.89762
12.6923,0.897434
12.8017,0.897254
12.9111,0.897079
13.0206,0.896908
13.13,0.896942
13.2394,0.896985
13.3488,0.89697
13.4582,0.896923
13.5676,0.896867
13.677,0.896803
13.7865,0.896702
13.8959,0.89659
14.0053,0.89646
14.1147,0.896297
14.2241,0.896109
14.3335,0.895932
14.443,0.895755
14.5524,0.89557
14.6618,0.895407
14.7712,0.895233
14.8806,0.895053
14.99,0.894874
15.0995,0.894698
15.2089,0.894524
15.3183,0.894349
15.4277,0.894166
15.5371,0.893984
15.6465,0.893805
15.756,0.893618
15.8654,0.893429
15.9748,0.893237
16.0842,0.893037
16.1936,0.892831
16.303,0.892618
16.4125,0.892406
16.5219,0.892206
16.6313,0.891994
16.7407,0.891775
16.8501,0.891538
16.9595,0.891293
17.069,0.891052
17.1784,0.890809
17.2878,0.890557
17.3972,0.890297
17.5066,0.890032
17.616,0.889761
17.7255,0.889493
17.8349,0.889224
17.9443,0.888958
18.0537,0.888687
18.1631,0.88841
18.2725,0.888131
18.382,0.887849
18.4914,0.887564
18.6008,0.887277
18.7102,0.886987
18.8196,0.886695
18.929,0.886401
19.0385,0.886104
19.1479,0.885805
19.2573,0.885504
19.3667,0.8852
19.4761,0.884898
19.5855,0.884595
19.6949,0.884309
19.8044,0.884028
19.9138,0.883738
20.0232,0.883447
20.1326,0.883157
20.242,0.882868
20.3514,0.882581
20.4609,0.882295
20.5703,0.882008
20.6797,0.881722
20.7891,0.881435
20.8985,0.881145
21.0079,0.880851
21.1174,0.880554
21.2268,0.880256
21.3362,0.87995
21.4456,0.879639
21.555,0.879319
21.6644,0.878991
21.7739,0.878643
21.8833,0.878285
21.9927,0.877922
22.1021,0.877556
22.2115,0.877191
22.3209,0.876822
22.4304,0.876454
22.5398,0.876096
22.6492,0.875756
22.7586,0.875423
22.868,0.875095
22.9774,0.874771
23.0869,0.874451
23.1963,0.874133
23.3057,0.873819
23.4151,0.873507
23.5245,0.873189
23.6339,0.872869
23.7434,0.872556
23.8528,0.872243
23.9622,0.871929
24.0716,0.871611
24.181,0.871285
24.2904,0.870956
24.3999,0.870625
24.5093,0.870281
24.6187,0.869935
24.7281,0.869591
24.8375,0.869248
24.9469,0.868905
25.0564,0.868556
25.1658,0.868201
25.2752,0.867842
25.3846,0.867482
25.494,0.867118
25.6034,0.866747
25.7129,0.866374
25.8223,0.866002
25.9317,0.865626
26.0411,0.865244
26.1505,0.86486
26.2599,0.864474
26.3693,0.864073
26.4788,0.863654
26.5882,0.863219
26.6976,0.862754
26.807,0.862311
26.9164,0.861874
27.0258,0.86143
27.1353,0.860989
27.2447,0.860542
27.3541,0.860046
27.4635,0.859547
27.5729,0.859066
27.6823,0.858572
27.7918,0.858087
27.9012,0.857609
28.0106,0.857126
28.12,0.856624
28.2294,0.856115
28.3388,0.855618
28.4483,0.855115
28.5577,0.854592
28.6671,0.854061
28.7765,0.85352
28.8859,0.852972
28.9953,0.852406
29.1048,0.851834
29.2142,0.851245
29.3236,0.85065
29.433,0.849997
29.5424,0.849341
29.6518,0.848718
29.7613,0.848095
29.8707,0.84744
29.9801,0.846763
30.0895,0.846055
30.1989,0.845306
30.3083,0.84454
30.4178,0.843752
30.5272,0.842922
30.6366,0.842081
30.746,0.841241
30.8554,0.840375
30.9648,0.839482
31.0743,0.838566
31.1837,0.837626
31.2931,0.836645
31.4025,0.835641
31.5119,0.834592
31.6213,0.833515
31.7308,0.832392
31.8402,0.831244
31.9496,0.830063
32.059,0.828827
32.1684,0.827532
32.2778,0.826208
32.3873,0.824845
32.4967,0.823443
32.6061,0.822001
32.6919,0.820832